date	time	group	subject	build	blocknum	trialnum	blockcode	trialcode	pretrialpause	posttrialpause	windowcenter	trialduration	trialtimeout	blocktimeout	response	correct	latency	inwindow	stimulusnumber1	stimulusitem1	stimulusvpos1	stimulushpos1	stimulusonset1	stimulusnumber2	stimulusitem2	stimulusvpos2	stimulushpos2	stimulusonset2	stimulusnumber3	stimulusitem3	stimulusvpos3	stimulushpos3	stimulusonset3	stimulusnumber4	stimulusitem4	stimulusvpos4	stimulushpos4	stimulusonset4
120216	19:33:01	1	1	4.0.9.0	1	1	picturediffer24blk	picturediffer24trial3	500	0	0	0	0	0	picturediffer24pic3	1	2054	0	1	pic_new25.bmp	50pct	60pct	1	1	pic_new1.bmp	50pct	40pct	1	1	pic_new1.bmp	50pct	20pct	1	1	pic_new1.bmp	50pct	80pct	1
120216	19:33:01	1	1	4.0.9.0	1	2	picturediffer24blk	picturediffer24trial2	500	0	0	0	0	0	picturediffer24pic2	1	1924	0	1	pic_new25.bmp	50pct	40pct	1	1	pic_new1.bmp	50pct	20pct	1	1	pic_new1.bmp	50pct	60pct	1	1	pic_new1.bmp	50pct	80pct	1
120216	19:33:01	1	1	4.0.9.0	1	3	picturediffer24blk	picturediffer24trial4	500	0	0	0	0	0	picturediffer24pic4	1	1012	0	1	pic_new25.bmp	50pct	80pct	0	1	pic_new1.bmp	50pct	40pct	0	1	pic_new1.bmp	50pct	60pct	0	1	pic_new1.bmp	50pct	20pct	0
120216	19:33:01	1	1	4.0.9.0	1	4	picturediffer24blk	picturediffer24trial3	500	0	0	0	0	0	picturediffer24pic3	1	874	0	1	pic_new25.bmp	50pct	60pct	0	1	pic_new1.bmp	50pct	40pct	0	1	pic_new1.bmp	50pct	20pct	0	1	pic_new1.bmp	50pct	80pct	0
120216	19:33:01	1	1	4.0.9.0	2	1	picturediffer21blk	picturediffer21trial4	500	0	0	0	0	0	picturediffer21pic4	1	976	0	1	pic_new22.bmp	50pct	80pct	0	1	pic_new1.bmp	50pct	40pct	0	1	pic_new1.bmp	50pct	60pct	0	1	pic_new1.bmp	50pct	20pct	0
120216	19:33:01	1	1	4.0.9.0	2	2	picturediffer21blk	picturediffer21trial1	500	0	0	0	0	0	picturediffer21pic1	1	4794	0	1	pic_new22.bmp	50pct	20pct	0	1	pic_new1.bmp	50pct	40pct	0	1	pic_new1.bmp	50pct	60pct	0	1	pic_new1.bmp	50pct	80pct	0
120216	19:33:01	1	1	4.0.9.0	2	3	picturediffer21blk	picturediffer21trial3	500	0	0	0	0	0	picturediffer21pic3	1	2350	0	1	pic_new22.bmp	50pct	60pct	0	1	pic_new1.bmp	50pct	40pct	0	1	pic_new1.bmp	50pct	20pct	0	1	pic_new1.bmp	50pct	80pct	0
120216	19:33:01	1	1	4.0.9.0	2	4	picturediffer21blk	picturediffer21trial1	500	0	0	0	0	0	picturediffer21pic1	1	1744	0	1	pic_new22.bmp	50pct	20pct	0	1	pic_new1.bmp	50pct	40pct	0	1	pic_new1.bmp	50pct	60pct	0	1	pic_new1.bmp	50pct	80pct	0
120216	19:33:01	1	1	4.0.9.0	3	1	picturediffer18blk	picturediffer18trial3	500	0	0	0	0	0	picturediffer18pic3	1	1176	0	1	pic_new19.bmp	50pct	60pct	0	1	pic_new1.bmp	50pct	40pct	0	1	pic_new1.bmp	50pct	20pct	0	1	pic_new1.bmp	50pct	80pct	0
120216	19:33:01	1	1	4.0.9.0	3	2	picturediffer18blk	picturediffer18trial1	500	0	0	0	0	0	picturediffer18pic1	1	1914	0	1	pic_new19.bmp	50pct	20pct	0	1	pic_new1.bmp	50pct	40pct	0	1	pic_new1.bmp	50pct	60pct	0	1	pic_new1.bmp	50pct	80pct	0
120216	19:33:01	1	1	4.0.9.0	3	3	picturediffer18blk	picturediffer18trial1	500	0	0	0	0	0	picturediffer18pic1	1	2649	0	1	pic_new19.bmp	50pct	20pct	0	1	pic_new1.bmp	50pct	40pct	0	1	pic_new1.bmp	50pct	60pct	0	1	pic_new1.bmp	50pct	80pct	0
120216	19:33:01	1	1	4.0.9.0	3	4	picturediffer18blk	picturediffer18trial2	500	0	0	0	0	0	picturediffer18pic2	1	965	0	1	pic_new19.bmp	50pct	40pct	0	1	pic_new1.bmp	50pct	20pct	0	1	pic_new1.bmp	50pct	60pct	0	1	pic_new1.bmp	50pct	80pct	0
120216	19:33:01	1	1	4.0.9.0	4	1	picturediffer15blk	picturediffer15trial1	500	0	0	0	0	0	picturediffer15pic1	1	1912	0	1	pic_new16.bmp	50pct	20pct	0	1	pic_new1.bmp	50pct	40pct	0	1	pic_new1.bmp	50pct	60pct	0	1	pic_new1.bmp	50pct	80pct	0
120216	19:33:01	1	1	4.0.9.0	4	2	picturediffer15blk	picturediffer15trial2	500	0	0	0	0	0	picturediffer15pic2	1	1693	0	1	pic_new16.bmp	50pct	40pct	0	1	pic_new1.bmp	50pct	20pct	0	1	pic_new1.bmp	50pct	60pct	0	1	pic_new1.bmp	50pct	80pct	0
120216	19:33:01	1	1	4.0.9.0	4	3	picturediffer15blk	picturediffer15trial4	500	0	0	0	0	0	picturediffer15pic4	1	1452	0	1	pic_new16.bmp	50pct	80pct	0	1	pic_new1.bmp	50pct	40pct	0	1	pic_new1.bmp	50pct	60pct	0	1	pic_new1.bmp	50pct	20pct	0
120216	19:33:01	1	1	4.0.9.0	4	4	picturediffer15blk	picturediffer15trial4	500	0	0	0	0	0	picturediffer15pic4	1	4346	0	1	pic_new16.bmp	50pct	80pct	0	1	pic_new1.bmp	50pct	40pct	0	1	pic_new1.bmp	50pct	60pct	0	1	pic_new1.bmp	50pct	20pct	0
120216	19:33:01	1	1	4.0.9.0	5	1	picturediffer12blk	picturediffer12trial2	500	0	0	0	0	0	picturediffer12pic2	1	2713	0	1	pic_new13.bmp	50pct	40pct	0	1	pic_new1.bmp	50pct	20pct	0	1	pic_new1.bmp	50pct	60pct	0	1	pic_new1.bmp	50pct	80pct	0
120216	19:33:01	1	1	4.0.9.0	5	2	picturediffer12blk	picturediffer12trial3	500	0	0	0	0	0	picturediffer12pic3	1	2132	0	1	pic_new13.bmp	50pct	60pct	0	1	pic_new1.bmp	50pct	40pct	0	1	pic_new1.bmp	50pct	20pct	0	1	pic_new1.bmp	50pct	80pct	0
120216	19:33:01	1	1	4.0.9.0	5	3	picturediffer12blk	picturediffer12trial2	500	0	0	0	0	0	picturediffer12pic2	1	1172	0	1	pic_new13.bmp	50pct	40pct	0	1	pic_new1.bmp	50pct	20pct	0	1	pic_new1.bmp	50pct	60pct	0	1	pic_new1.bmp	50pct	80pct	0
120216	19:33:01	1	1	4.0.9.0	5	4	picturediffer12blk	picturediffer12trial4	500	0	0	0	0	0	picturediffer12pic4	1	1654	0	1	pic_new13.bmp	50pct	80pct	0	1	pic_new1.bmp	50pct	40pct	0	1	pic_new1.bmp	50pct	60pct	0	1	pic_new1.bmp	50pct	20pct	0
