date	time	group	subject	build	blocknum	trialnum	blockcode	trialcode	pretrialpause	posttrialpause	windowcenter	trialduration	trialtimeout	blocktimeout	response	correct	latency	inwindow	stimulusnumber1	stimulusitem1	stimulusvpos1	stimulushpos1	stimulusonset1	stimulusnumber2	stimulusitem2	stimulusvpos2	stimulushpos2	stimulusonset2
111316	14:46:41	1	1	4.0.9.0	2	1	redblueblk	bluefittrial	500	0	0	0	0	0	36	1	36	0	3	蓝	50pct	50pct	0	0	0	0	0	0
111316	14:46:41	1	1	4.0.9.0	2	2	redblueblk	redfittrial	500	0	0	0	0	0	33	1	48	0	2	红	50pct	50pct	0	0	0	0	0	0
111316	14:46:41	1	1	4.0.9.0	2	3	redblueblk	bluefittrial	500	0	0	0	0	0	36	1	53	0	4	蓝	50pct	50pct	1	0	0	0	0	0
111316	14:46:41	1	1	4.0.9.0	2	4	redblueblk	redunfittrial	500	0	0	0	0	0	33	1	34	0	3	蓝	50pct	50pct	0	0	0	0	0	0
111316	14:46:41	1	1	4.0.9.0	2	5	redblueblk	redunfittrial	500	0	0	0	0	0	33	1	41	0	2	蓝	50pct	50pct	1	0	0	0	0	0
111316	14:46:41	1	1	4.0.9.0	2	6	redblueblk	bluefittrial	500	0	0	0	0	0	36	1	30	0	1	蓝	50pct	50pct	0	0	0	0	0	0
111316	14:46:41	1	1	4.0.9.0	2	7	redblueblk	bluefittrial	500	0	0	0	0	0	33	0	56	0	2	蓝	50pct	50pct	0	0	0	0	0	0
111316	14:46:41	1	1	4.0.9.0	2	8	redblueblk	redfittrial	500	0	0	0	0	0	33	1	31	0	3	红	50pct	50pct	0	0	0	0	0	0
111316	14:46:41	1	1	4.0.9.0	2	9	redblueblk	blueunfittrial	500	0	0	0	0	0	36	1	47	0	4	红	50pct	50pct	0	0	0	0	0	0
111316	14:46:41	1	1	4.0.9.0	2	10	redblueblk	redunfittrial	500	0	0	0	0	0	33	1	54	0	1	蓝	50pct	50pct	0	0	0	0	0	0
111316	14:46:41	1	1	4.0.9.0	2	11	redblueblk	blueunfittrial	500	0	0	0	0	0	36	1	16	0	3	红	50pct	50pct	0	0	0	0	0	0
111316	14:46:41	1	1	4.0.9.0	2	12	redblueblk	redfittrial	500	0	0	0	0	0	33	1	49	0	4	红	50pct	50pct	0	0	0	0	0	0
111316	14:46:41	1	1	4.0.9.0	2	13	redblueblk	redunfittrial	500	0	0	0	0	0	33	1	64	0	4	蓝	50pct	50pct	0	0	0	0	0	0
111316	14:46:41	1	1	4.0.9.0	2	14	redblueblk	blueunfittrial	500	0	0	0	0	0	36	1	46	0	2	红	50pct	50pct	0	0	0	0	0	0
111316	14:46:41	1	1	4.0.9.0	2	15	redblueblk	redfittrial	500	0	0	0	0	0	33	1	60	0	1	红	50pct	50pct	0	0	0	0	0	0
111316	14:46:41	1	1	4.0.9.0	2	16	redblueblk	blueunfittrial	500	0	0	0	0	0	33	0	45	0	1	红	50pct	50pct	1	0	0	0	0	0
111316	14:47:14	1	1	4.0.9.0	2	1	redblueblk	blueunfittrial	500	0	0	0	0	0	36	1	904	0	1	红	50pct	50pct	1	0	0	0	0	0
111316	14:47:14	1	1	4.0.9.0	2	2	redblueblk	blueunfittrial	500	0	0	0	0	0	36	1	637	0	2	红	50pct	50pct	2	0	0	0	0	0
111316	14:47:14	1	1	4.0.9.0	2	3	redblueblk	redfittrial	500	0	0	0	0	0	33	1	439	0	2	红	50pct	50pct	1	0	0	0	0	0
111316	14:47:14	1	1	4.0.9.0	2	4	redblueblk	redfittrial	500	0	0	0	0	0	33	1	352	0	4	红	50pct	50pct	1	0	0	0	0	0
111316	14:47:14	1	1	4.0.9.0	2	5	redblueblk	redunfittrial	500	0	0	0	0	0	33	1	618	0	4	蓝	50pct	50pct	1	0	0	0	0	0
111316	14:47:14	1	1	4.0.9.0	2	6	redblueblk	blueunfittrial	500	0	0	0	0	0	36	1	522	0	3	红	50pct	50pct	1	0	0	0	0	0
111316	14:47:14	1	1	4.0.9.0	2	7	redblueblk	redunfittrial	500	0	0	0	0	0	33	1	576	0	3	蓝	50pct	50pct	1	0	0	0	0	0
111316	14:47:14	1	1	4.0.9.0	2	8	redblueblk	redunfittrial	500	0	0	0	0	0	33	1	407	0	2	蓝	50pct	50pct	1	0	0	0	0	0
111316	14:47:14	1	1	4.0.9.0	2	9	redblueblk	bluefittrial	500	0	0	0	0	0	36	1	448	0	2	蓝	50pct	50pct	1	0	0	0	0	0
111316	14:47:14	1	1	4.0.9.0	2	10	redblueblk	bluefittrial	500	0	0	0	0	0	36	1	363	0	3	蓝	50pct	50pct	1	0	0	0	0	0
111316	14:47:14	1	1	4.0.9.0	2	11	redblueblk	redfittrial	500	0	0	0	0	0	33	1	759	0	3	红	50pct	50pct	1	0	0	0	0	0
111316	14:47:14	1	1	4.0.9.0	2	12	redblueblk	blueunfittrial	500	0	0	0	0	0	36	1	1003	0	4	红	50pct	50pct	1	0	0	0	0	0
111316	14:47:14	1	1	4.0.9.0	2	13	redblueblk	bluefittrial	500	0	0	0	0	0	36	1	378	0	4	蓝	50pct	50pct	1	0	0	0	0	0
111316	14:47:14	1	1	4.0.9.0	2	14	redblueblk	redunfittrial	500	0	0	0	0	0	33	1	463	0	1	蓝	50pct	50pct	1	0	0	0	0	0
111316	14:47:14	1	1	4.0.9.0	2	15	redblueblk	bluefittrial	500	0	0	0	0	0	36	1	866	0	1	蓝	50pct	50pct	1	0	0	0	0	0
111316	14:47:14	1	1	4.0.9.0	2	16	redblueblk	redfittrial	500	0	0	0	0	0	33	1	446	0	1	红	50pct	50pct	1	0	0	0	0	0
111316	15:12:30	1	2	4.0.9.0	2	1	redblueblk	blueunfittrial	500	0	0	0	0	0	36	1	36	0	3	红	50pct	50pct	1	0	0	0	0	0
111316	15:12:30	1	2	4.0.9.0	2	2	redblueblk	bluefittrial	500	0	0	0	0	0	36	1	37	0	2	蓝	50pct	50pct	0	0	0	0	0	0
111316	15:12:30	1	2	4.0.9.0	2	3	redblueblk	redfittrial	500	0	0	0	0	0	33	1	52	0	3	红	50pct	50pct	1	0	0	0	0	0
111316	15:12:30	1	2	4.0.9.0	2	4	redblueblk	bluefittrial	500	0	0	0	0	0	33	0	33	0	4	蓝	50pct	50pct	1	0	0	0	0	0
111316	15:12:30	1	2	4.0.9.0	2	5	redblueblk	blueunfittrial	500	0	0	0	0	0	36	1	46	0	4	红	50pct	50pct	1	0	0	0	0	0
111316	15:12:30	1	2	4.0.9.0	2	6	redblueblk	blueunfittrial	500	0	0	0	0	0	33	0	47	0	1	红	50pct	50pct	0	0	0	0	0	0
111316	15:12:30	1	2	4.0.9.0	2	7	redblueblk	bluefittrial	500	0	0	0	0	0	36	1	47	0	3	蓝	50pct	50pct	0	0	0	0	0	0
111316	15:12:30	1	2	4.0.9.0	2	8	redblueblk	bluefittrial	500	0	0	0	0	0	36	1	35	0	1	蓝	50pct	50pct	1	0	0	0	0	0
111316	15:12:30	1	2	4.0.9.0	2	9	redblueblk	redfittrial	500	0	0	0	0	0	33	1	46	0	1	红	50pct	50pct	2	0	0	0	0	0
111316	15:12:30	1	2	4.0.9.0	2	10	redblueblk	redunfittrial	500	0	0	0	0	0	33	1	53	0	4	蓝	50pct	50pct	0	0	0	0	0	0
111316	15:12:30	1	2	4.0.9.0	2	11	redblueblk	blueunfittrial	500	0	0	0	0	0	36	1	26	0	2	红	50pct	50pct	0	0	0	0	0	0
111316	15:12:30	1	2	4.0.9.0	2	12	redblueblk	blueunfittrial	500	0	0	0	0	0	36	1	36	0	2	红	50pct	50pct	0	0	0	0	0	0
111316	15:12:30	1	2	4.0.9.0	2	13	redblueblk	blueunfittrial	500	0	0	0	0	0	33	0	32	0	4	红	50pct	50pct	0	0	0	0	0	0
111316	15:12:30	1	2	4.0.9.0	2	14	redblueblk	redunfittrial	500	0	0	0	0	0	33	1	24	0	2	蓝	50pct	50pct	0	0	0	0	0	0
111316	15:12:30	1	2	4.0.9.0	2	15	redblueblk	redfittrial	500	0	0	0	0	0	33	1	46	0	2	红	50pct	50pct	0	0	0	0	0	0
111316	15:12:30	1	2	4.0.9.0	2	16	redblueblk	redunfittrial	500	0	0	0	0	0	33	1	42	0	1	蓝	50pct	50pct	0	0	0	0	0	0
111316	15:12:30	1	2	4.0.9.0	2	17	redblueblk	redfittrial	500	0	0	0	0	0	33	1	33	0	4	红	50pct	50pct	0	0	0	0	0	0
111316	15:12:30	1	2	4.0.9.0	2	18	redblueblk	bluefittrial	500	0	0	0	0	0	33	0	30	0	3	蓝	50pct	50pct	1	0	0	0	0	0
111316	15:12:30	1	2	4.0.9.0	2	19	redblueblk	redfittrial	500	0	0	0	0	0	33	1	49	0	4	红	50pct	50pct	0	0	0	0	0	0
111316	15:12:30	1	2	4.0.9.0	2	20	redblueblk	bluefittrial	500	0	0	0	0	0	33	0	42	0	1	蓝	50pct	50pct	1	0	0	0	0	0
111316	15:12:30	1	2	4.0.9.0	2	21	redblueblk	blueunfittrial	500	0	0	0	0	0	36	1	56	0	1	红	50pct	50pct	0	0	0	0	0	0
111316	15:12:30	1	2	4.0.9.0	2	22	redblueblk	bluefittrial	500	0	0	0	0	0	33	0	50	0	2	蓝	50pct	50pct	1	0	0	0	0	0
111316	15:12:30	1	2	4.0.9.0	2	23	redblueblk	bluefittrial	500	0	0	0	0	0	36	1	53	0	4	蓝	50pct	50pct	1	0	0	0	0	0
111316	15:12:30	1	2	4.0.9.0	2	24	redblueblk	redfittrial	500	0	0	0	0	0	33	1	49	0	3	红	50pct	50pct	2	0	0	0	0	0
111316	15:12:30	1	2	4.0.9.0	2	25	redblueblk	redunfittrial	500	0	0	0	0	0	33	1	49	0	3	蓝	50pct	50pct	0	0	0	0	0	0
111316	15:12:30	1	2	4.0.9.0	2	26	redblueblk	redunfittrial	500	0	0	0	0	0	33	1	39	0	4	蓝	50pct	50pct	0	0	0	0	0	0
111316	15:12:30	1	2	4.0.9.0	2	27	redblueblk	blueunfittrial	500	0	0	0	0	0	33	0	37	0	3	红	50pct	50pct	0	0	0	0	0	0
111316	15:12:30	1	2	4.0.9.0	2	28	redblueblk	redunfittrial	500	0	0	0	0	0	33	1	56	0	1	蓝	50pct	50pct	1	0	0	0	0	0
111316	15:12:30	1	2	4.0.9.0	2	29	redblueblk	blueunfittrial	500	0	0	0	0	0	36	1	46	0	2	红	50pct	50pct	0	0	0	0	0	0
111316	15:12:30	1	2	4.0.9.0	2	30	redblueblk	redunfittrial	500	0	0	0	0	0	33	1	39	0	3	蓝	50pct	50pct	0	0	0	0	0	0
111316	15:12:30	1	2	4.0.9.0	2	31	redblueblk	blueunfittrial	500	0	0	0	0	0	33	0	39	0	4	红	50pct	50pct	0	0	0	0	0	0
111316	15:12:30	1	2	4.0.9.0	2	32	redblueblk	redunfittrial	500	0	0	0	0	0	36	0	41	0	2	蓝	50pct	50pct	0	0	0	0	0	0
111316	15:12:30	1	2	4.0.9.0	2	33	redblueblk	redfittrial	500	0	0	0	0	0	33	1	39	0	1	红	50pct	50pct	0	0	0	0	0	0
111316	15:12:30	1	2	4.0.9.0	2	34	redblueblk	bluefittrial	500	0	0	0	0	0	36	1	43	0	1	蓝	50pct	50pct	0	0	0	0	0	0
111316	15:12:30	1	2	4.0.9.0	2	35	redblueblk	redfittrial	500	0	0	0	0	0	33	1	27	0	2	红	50pct	50pct	1	0	0	0	0	0
111316	15:12:30	1	2	4.0.9.0	2	36	redblueblk	bluefittrial	500	0	0	0	0	0	36	1	44	0	3	蓝	50pct	50pct	0	0	0	0	0	0
111316	15:12:30	1	2	4.0.9.0	2	37	redblueblk	redunfittrial	500	0	0	0	0	0	33	1	53	0	1	蓝	50pct	50pct	0	0	0	0	0	0
111316	15:12:30	1	2	4.0.9.0	2	38	redblueblk	blueunfittrial	500	0	0	0	0	0	36	1	36	0	1	红	50pct	50pct	1	0	0	0	0	0
111316	15:12:30	1	2	4.0.9.0	2	39	redblueblk	bluefittrial	500	0	0	0	0	0	36	1	52	0	2	蓝	50pct	50pct	0	0	0	0	0	0
111316	15:12:30	1	2	4.0.9.0	2	40	redblueblk	redunfittrial	500	0	0	0	0	0	33	1	43	0	2	蓝	50pct	50pct	0	0	0	0	0	0
111316	15:12:30	1	2	4.0.9.0	2	41	redblueblk	redfittrial	500	0	0	0	0	0	36	0	27	0	3	红	50pct	50pct	0	0	0	0	0	0
111316	15:12:30	1	2	4.0.9.0	2	42	redblueblk	redunfittrial	500	0	0	0	0	0	33	1	39	0	3	蓝	50pct	50pct	0	0	0	0	0	0
111316	15:12:30	1	2	4.0.9.0	2	43	redblueblk	blueunfittrial	500	0	0	0	0	0	36	1	37	0	3	红	50pct	50pct	0	0	0	0	0	0
111316	15:12:30	1	2	4.0.9.0	2	44	redblueblk	bluefittrial	500	0	0	0	0	0	36	1	49	0	4	蓝	50pct	50pct	1	0	0	0	0	0
111316	15:12:30	1	2	4.0.9.0	2	45	redblueblk	redfittrial	500	0	0	0	0	0	33	1	42	0	2	红	50pct	50pct	0	0	0	0	0	0
111316	15:12:30	1	2	4.0.9.0	2	46	redblueblk	redfittrial	500	0	0	0	0	0	33	1	42	0	1	红	50pct	50pct	0	0	0	0	0	0
111316	15:12:30	1	2	4.0.9.0	2	47	redblueblk	redunfittrial	500	0	0	0	0	0	36	0	34	0	4	蓝	50pct	50pct	0	0	0	0	0	0
111316	15:12:30	1	2	4.0.9.0	2	48	redblueblk	redfittrial	500	0	0	0	0	0	36	0	44	0	4	红	50pct	50pct	0	0	0	0	0	0
111316	17:21:53	2	1	4.0.9.0	2	1	redblueblk	redunfittrial	500	0	0	0	0	0	33	1	3407	0	3	蓝	50pct	50pct	1	0	0	0	0	0
111316	17:21:53	2	1	4.0.9.0	2	2	redblueblk	blueunfittrial	500	0	0	0	0	0	36	1	1129	0	4	红	50pct	50pct	1	0	0	0	0	0
111316	17:21:53	2	1	4.0.9.0	2	3	redblueblk	redfittrial	500	0	0	0	0	0	33	1	670	0	2	红	50pct	50pct	0	0	0	0	0	0
111316	17:21:53	2	1	4.0.9.0	2	4	redblueblk	blueunfittrial	500	0	0	0	0	0	36	1	894	0	2	红	50pct	50pct	1	0	0	0	0	0
111316	17:21:53	2	1	4.0.9.0	2	5	redblueblk	blueunfittrial	500	0	0	0	0	0	36	1	906	0	3	红	50pct	50pct	0	0	0	0	0	0
111316	17:21:53	2	1	4.0.9.0	2	6	redblueblk	bluefittrial	500	0	0	0	0	0	36	1	510	0	4	蓝	50pct	50pct	0	0	0	0	0	0
111316	17:21:53	2	1	4.0.9.0	2	7	redblueblk	blueunfittrial	500	0	0	0	0	0	36	1	368	0	1	红	50pct	50pct	1	0	0	0	0	0
111316	17:21:53	2	1	4.0.9.0	2	8	redblueblk	redfittrial	500	0	0	0	0	0	33	1	530	0	4	红	50pct	50pct	1	0	0	0	0	0
111316	17:21:53	2	1	4.0.9.0	2	9	redblueblk	redunfittrial	500	0	0	0	0	0	33	1	505	0	1	蓝	50pct	50pct	1	0	0	0	0	0
111316	17:21:53	2	1	4.0.9.0	2	10	redblueblk	blueunfittrial	500	0	0	0	0	0	36	1	567	0	1	红	50pct	50pct	1	0	0	0	0	0
111316	17:21:53	2	1	4.0.9.0	2	11	redblueblk	redunfittrial	500	0	0	0	0	0	33	1	525	0	4	蓝	50pct	50pct	0	0	0	0	0	0
111316	17:21:53	2	1	4.0.9.0	2	12	redblueblk	redunfittrial	500	0	0	0	0	0	33	1	407	0	2	蓝	50pct	50pct	1	0	0	0	0	0
111316	17:21:53	2	1	4.0.9.0	2	13	redblueblk	blueunfittrial	500	0	0	0	0	0	36	1	504	0	3	红	50pct	50pct	1	0	0	0	0	0
111316	17:21:53	2	1	4.0.9.0	2	14	redblueblk	redfittrial	500	0	0	0	0	0	33	1	361	0	3	红	50pct	50pct	1	0	0	0	0	0
111316	17:21:53	2	1	4.0.9.0	2	15	redblueblk	blueunfittrial	500	0	0	0	0	0	33	0	483	0	4	红	50pct	50pct	1	0	0	0	0	0
111316	17:21:53	2	1	4.0.9.0	2	16	redblueblk	blueunfittrial	500	0	0	0	0	0	36	1	2197	0	2	红	50pct	50pct	1	0	0	0	0	0
111316	17:21:53	2	1	4.0.9.0	2	17	redblueblk	bluefittrial	500	0	0	0	0	0	36	1	539	0	1	蓝	50pct	50pct	1	0	0	0	0	0
111316	17:21:53	2	1	4.0.9.0	2	18	redblueblk	blueunfittrial	500	0	0	0	0	0	36	1	419	0	4	红	50pct	50pct	1	0	0	0	0	0
111316	17:21:53	2	1	4.0.9.0	2	19	redblueblk	redfittrial	500	0	0	0	0	0	33	1	496	0	1	红	50pct	50pct	0	0	0	0	0	0
111316	17:21:53	2	1	4.0.9.0	2	20	redblueblk	redfittrial	500	0	0	0	0	0	33	1	553	0	4	红	50pct	50pct	1	0	0	0	0	0
111316	17:21:53	2	1	4.0.9.0	2	21	redblueblk	bluefittrial	500	0	0	0	0	0	36	1	483	0	3	蓝	50pct	50pct	1	0	0	0	0	0
111316	17:21:53	2	1	4.0.9.0	2	22	redblueblk	bluefittrial	500	0	0	0	0	0	36	1	396	0	2	蓝	50pct	50pct	1	0	0	0	0	0
111316	17:21:53	2	1	4.0.9.0	2	23	redblueblk	redunfittrial	500	0	0	0	0	0	33	1	690	0	1	蓝	50pct	50pct	1	0	0	0	0	0
111316	17:21:53	2	1	4.0.9.0	2	24	redblueblk	bluefittrial	500	0	0	0	0	0	36	1	830	0	3	蓝	50pct	50pct	1	0	0	0	0	0
111316	17:21:53	2	1	4.0.9.0	2	25	redblueblk	redfittrial	500	0	0	0	0	0	33	1	485	0	1	红	50pct	50pct	1	0	0	0	0	0
111316	17:21:53	2	1	4.0.9.0	2	26	redblueblk	bluefittrial	500	0	0	0	0	0	36	1	539	0	4	蓝	50pct	50pct	1	0	0	0	0	0
111316	17:21:53	2	1	4.0.9.0	2	27	redblueblk	redfittrial	500	0	0	0	0	0	33	1	489	0	2	红	50pct	50pct	1	0	0	0	0	0
111316	17:21:53	2	1	4.0.9.0	2	28	redblueblk	bluefittrial	500	0	0	0	0	0	36	1	411	0	2	蓝	50pct	50pct	1	0	0	0	0	0
111316	17:21:53	2	1	4.0.9.0	2	29	redblueblk	redfittrial	500	0	0	0	0	0	33	1	463	0	3	红	50pct	50pct	0	0	0	0	0	0
111316	17:21:53	2	1	4.0.9.0	2	30	redblueblk	redunfittrial	500	0	0	0	0	0	33	1	627	0	4	蓝	50pct	50pct	1	0	0	0	0	0
111316	17:21:53	2	1	4.0.9.0	2	31	redblueblk	redfittrial	500	0	0	0	0	0	33	1	409	0	3	红	50pct	50pct	1	0	0	0	0	0
111316	17:21:53	2	1	4.0.9.0	2	32	redblueblk	redfittrial	500	0	0	0	0	0	33	1	559	0	4	红	50pct	50pct	0	0	0	0	0	0
111316	17:21:53	2	1	4.0.9.0	2	33	redblueblk	bluefittrial	500	0	0	0	0	0	36	1	583	0	1	蓝	50pct	50pct	1	0	0	0	0	0
111316	17:21:53	2	1	4.0.9.0	2	34	redblueblk	bluefittrial	500	0	0	0	0	0	36	1	387	0	3	蓝	50pct	50pct	1	0	0	0	0	0
111316	17:21:53	2	1	4.0.9.0	2	35	redblueblk	redunfittrial	500	0	0	0	0	0	33	1	420	0	2	蓝	50pct	50pct	1	0	0	0	0	0
111316	17:21:53	2	1	4.0.9.0	2	36	redblueblk	blueunfittrial	500	0	0	0	0	0	36	1	785	0	1	红	50pct	50pct	1	0	0	0	0	0
111316	17:21:53	2	1	4.0.9.0	2	37	redblueblk	redunfittrial	500	0	0	0	0	0	33	1	360	0	3	蓝	50pct	50pct	0	0	0	0	0	0
111316	17:21:53	2	1	4.0.9.0	2	38	redblueblk	bluefittrial	500	0	0	0	0	0	36	1	404	0	1	蓝	50pct	50pct	1	0	0	0	0	0
111316	17:21:53	2	1	4.0.9.0	2	39	redblueblk	redunfittrial	500	0	0	0	0	0	33	1	544	0	4	蓝	50pct	50pct	0	0	0	0	0	0
111316	17:21:53	2	1	4.0.9.0	2	40	redblueblk	redfittrial	500	0	0	0	0	0	33	1	503	0	1	红	50pct	50pct	1	0	0	0	0	0
111316	17:21:53	2	1	4.0.9.0	2	41	redblueblk	redunfittrial	500	0	0	0	0	0	33	1	698	0	2	蓝	50pct	50pct	1	0	0	0	0	0
111316	17:21:53	2	1	4.0.9.0	2	42	redblueblk	bluefittrial	500	0	0	0	0	0	36	1	456	0	2	蓝	50pct	50pct	1	0	0	0	0	0
111316	17:21:53	2	1	4.0.9.0	2	43	redblueblk	redunfittrial	500	0	0	0	0	0	36	0	424	0	1	蓝	50pct	50pct	1	0	0	0	0	0
111316	17:21:53	2	1	4.0.9.0	2	44	redblueblk	bluefittrial	500	0	0	0	0	0	36	1	1083	0	4	蓝	50pct	50pct	1	0	0	0	0	0
111316	17:21:53	2	1	4.0.9.0	2	45	redblueblk	redunfittrial	500	0	0	0	0	0	33	1	445	0	3	蓝	50pct	50pct	0	0	0	0	0	0
111316	17:21:53	2	1	4.0.9.0	2	46	redblueblk	blueunfittrial	500	0	0	0	0	0	36	1	675	0	3	红	50pct	50pct	1	0	0	0	0	0
111316	17:21:53	2	1	4.0.9.0	2	47	redblueblk	redfittrial	500	0	0	0	0	0	33	1	589	0	2	红	50pct	50pct	1	0	0	0	0	0
111316	17:21:53	2	1	4.0.9.0	2	48	redblueblk	blueunfittrial	500	0	0	0	0	0	36	1	463	0	2	红	50pct	50pct	1	0	0	0	0	0
