date	time	group	subject	build	blocknum	trialnum	blockcode	trialcode	pretrialpause	posttrialpause	windowcenter	trialduration	trialtimeout	blocktimeout	response	correct	latency	inwindow
120216	01:35:12	1	1	4.0.9.0	1	1	expblk	3	500	0	0	0	0	0	Ctrl+'Q'	1	33154	0
120216	01:37:38	1	1	4.0.9.0	1	1	expblk	4	500	0	0	0	0	0	Ctrl+'Q'	1	14146	0
120216	01:40:44	1	1	4.0.9.0	1	1	expblk	2	500	0	0	0	0	0	Ctrl+'Q'	1	16561	0
120216	01:48:22	1	1	4.0.9.0	1	1	expblk	4	500	0	0	0	0	0	Ctrl+'Q'	1	20266	0
120216	01:59:52	1	1	4.0.9.0	1	1	expblk	3	500	0	0	0	0	0	Ctrl+'Q'	1	21680	0
120216	02:04:14	1	1	4.0.9.0	1	1	expblk	2	0	0	0	0	0	0	Ctrl+'Q'	1	5667	0
120216	02:05:17	1	1	4.0.9.0	1	1	expblk	2	0	0	0	0	0	0	Ctrl+'Q'	1	7646	0
120216	02:09:16	1	1	4.0.9.0	1	1	expblk	3	500	0	0	0	0	0	Ctrl+'Q'	1	7020	0
120216	02:13:14	1	1	4.0.9.0	1	1	expblk	4	500	0	0	0	0	0	Ctrl+'Q'	1	6232	0
120216	02:20:51	1	1	4.0.9.0	1	1	expblk	4	500	0	0	0	0	0	stim4	1	3355	0
120216	02:20:51	1	1	4.0.9.0	1	2	expblk	1	500	0	0	0	0	0	stim1	1	1786	0
120216	02:20:51	1	1	4.0.9.0	1	3	expblk	3	500	0	0	0	0	0	stim3	1	4054	0
120216	02:20:51	1	1	4.0.9.0	1	4	expblk	4	500	0	0	0	0	0	stim4	1	2100	0
120216	02:20:51	1	1	4.0.9.0	1	5	expblk	1	500	0	0	0	0	0	stim1	1	1853	0
120216	02:20:51	1	1	4.0.9.0	1	6	expblk	2	500	0	0	0	0	0	stim2	1	8241	0
120216	02:20:51	1	1	4.0.9.0	1	7	expblk	4	500	0	0	0	0	0	org3	0	1276	0
120216	02:20:51	1	1	4.0.9.0	1	8	expblk	2	500	0	0	0	0	0	org1	0	1637	0
120216	02:20:51	1	1	4.0.9.0	1	9	expblk	1	500	0	0	0	0	0	stim1	1	3374	0
120216	02:20:51	1	1	4.0.9.0	1	10	expblk	3	500	0	0	0	0	0	stim3	1	9397	0
120216	02:23:35	1	1	4.0.9.0	1	1	expblk	4	500	0	0	0	0	0	Ctrl+'Q'	1	5318	0
120216	02:24:09	1	1	4.0.9.0	1	1	expblk	3	500	0	0	0	0	0	stim3	1	2523	0
120216	02:24:09	1	1	4.0.9.0	1	2	expblk	1	500	0	0	0	0	0	stim1	1	1173	0
120216	02:24:09	1	1	4.0.9.0	1	3	expblk	4	500	0	0	0	0	0	stim4	1	2660	0
120216	02:24:09	1	1	4.0.9.0	1	4	expblk	2	500	0	0	0	0	0	org1	0	6295	0
120216	02:24:09	1	1	4.0.9.0	1	5	expblk	4	500	0	0	0	0	0	stim4	1	3765	0
120216	02:24:09	1	1	4.0.9.0	1	6	expblk	2	500	0	0	0	0	0	org1	0	9313	0
120216	02:24:09	1	1	4.0.9.0	1	7	expblk	3	500	0	0	0	0	0	stim3	1	1916	0
120216	02:24:09	1	1	4.0.9.0	1	8	expblk	1	500	0	0	0	0	0	stim1	1	2270	0
120216	02:24:09	1	1	4.0.9.0	1	9	expblk	4	500	0	0	0	0	0	stim4	1	2689	0
120216	02:24:09	1	1	4.0.9.0	1	10	expblk	3	500	0	0	0	0	0	stim3	1	2021	0
120216	02:26:29	1	1	4.0.9.0	1	1	expblk	2	500	0	0	0	0	0	Ctrl+'Q'	1	7305	0
120216	02:27:16	1	1	4.0.9.0	1	1	expblk	1	500	0	0	0	0	0	stim1	1	2022	0
120216	02:27:16	1	1	4.0.9.0	1	2	expblk	2	500	0	0	0	0	0	Ctrl+'Q'	1	3416	0
120216	02:28:16	1	1	4.0.9.0	1	1	expblk	1	500	0	0	0	0	0	stim1	1	895	0
120216	02:28:16	1	1	4.0.9.0	1	2	expblk	2	500	0	0	0	0	0	stim2	1	1482	0
120216	02:28:16	1	1	4.0.9.0	1	3	expblk	3	500	0	0	0	0	0	stim3	1	1797	0
120216	02:28:16	1	1	4.0.9.0	1	4	expblk	1	500	0	0	0	0	0	stim1	1	2483	0
120216	02:28:16	1	1	4.0.9.0	1	5	expblk	4	500	0	0	0	0	0	stim4	1	2647	0
120216	02:28:16	1	1	4.0.9.0	1	6	expblk	2	500	0	0	0	0	0	stim2	1	1671	0
120216	02:28:16	1	1	4.0.9.0	1	7	expblk	4	500	0	0	0	0	0	stim4	1	1713	0
120216	02:28:16	1	1	4.0.9.0	1	8	expblk	2	500	0	0	0	0	0	stim2	1	1291	0
120216	02:28:16	1	1	4.0.9.0	1	9	expblk	4	500	0	0	0	0	0	stim4	1	2353	0
120216	02:28:16	1	1	4.0.9.0	1	10	expblk	3	500	0	0	0	0	0	stim3	1	2365	0
120216	02:29:39	1	1	4.0.9.0	1	1	expblk	3	500	0	0	0	0	0	stim3	1	34	0
120216	02:29:39	1	1	4.0.9.0	1	2	expblk	4	500	0	0	0	0	0	stim4	1	35	0
120216	02:29:39	1	1	4.0.9.0	1	3	expblk	2	500	0	0	0	0	0	stim2	1	34	0
120216	02:29:39	1	1	4.0.9.0	1	4	expblk	1	500	0	0	0	0	0	org4	0	51	0
120216	02:29:39	1	1	4.0.9.0	1	5	expblk	3	500	0	0	0	0	0	org4	0	30	0
120216	02:29:39	1	1	4.0.9.0	1	6	expblk	2	500	0	0	0	0	0	stim2	1	44	0
120216	02:29:39	1	1	4.0.9.0	1	7	expblk	1	500	0	0	0	0	0	stim1	1	28	0
120216	02:29:39	1	1	4.0.9.0	1	8	expblk	3	500	0	0	0	0	0	stim3	1	18	0
120216	02:29:39	1	1	4.0.9.0	1	9	expblk	1	500	0	0	0	0	0	stim1	1	35	0
120216	02:29:39	1	1	4.0.9.0	1	10	expblk	3	500	0	0	0	0	0	stim3	1	36	0
120216	02:29:39	1	1	4.0.9.0	1	11	expblk	4	500	0	0	0	0	0	stim4	1	52	0
120216	02:29:39	1	1	4.0.9.0	1	12	expblk	1	500	0	0	0	0	0	stim1	1	38	0
120216	02:29:39	1	1	4.0.9.0	1	13	expblk	2	500	0	0	0	0	0	stim2	1	58	0
120216	02:29:39	1	1	4.0.9.0	1	14	expblk	4	500	0	0	0	0	0	org3	0	46	0
120216	02:29:39	1	1	4.0.9.0	1	15	expblk	3	500	0	0	0	0	0	org2	0	28	0
120216	02:29:39	1	1	4.0.9.0	1	16	expblk	2	500	0	0	0	0	0	stim2	1	39	0
120216	02:29:39	1	1	4.0.9.0	1	17	expblk	3	500	0	0	0	0	0	stim3	1	28	0
120216	02:29:39	1	1	4.0.9.0	1	18	expblk	2	500	0	0	0	0	0	stim2	1	29	0
120216	02:29:39	1	1	4.0.9.0	1	19	expblk	4	500	0	0	0	0	0	org2	0	48	0
120216	02:29:39	1	1	4.0.9.0	1	20	expblk	3	500	0	0	0	0	0	org1	0	40	0
120216	02:29:39	1	1	4.0.9.0	1	21	expblk	4	500	0	0	0	0	0	stim4	1	42	0
120216	02:29:39	1	1	4.0.9.0	1	22	expblk	1	500	0	0	0	0	0	org4	0	49	0
120216	02:29:39	1	1	4.0.9.0	1	23	expblk	3	500	0	0	0	0	0	stim3	1	35	0
120216	02:29:39	1	1	4.0.9.0	1	24	expblk	1	500	0	0	0	0	0	stim1	1	32	0
120216	02:29:39	1	1	4.0.9.0	1	25	expblk	2	500	0	0	0	0	0	stim2	1	37	0
120216	02:29:39	1	1	4.0.9.0	1	26	expblk	4	500	0	0	0	0	0	stim4	1	47	0
120216	02:29:39	1	1	4.0.9.0	1	27	expblk	3	500	0	0	0	0	0	org1	0	37	0
120216	02:29:39	1	1	4.0.9.0	1	28	expblk	2	500	0	0	0	0	0	org4	0	36	0
120216	02:29:39	1	1	4.0.9.0	1	29	expblk	3	500	0	0	0	0	0	org2	0	42	0
120216	02:29:39	1	1	4.0.9.0	1	30	expblk	1	500	0	0	0	0	0	stim1	1	38	0
120216	02:29:39	1	1	4.0.9.0	1	31	expblk	2	500	0	0	0	0	0	org3	0	57	0
120216	02:29:39	1	1	4.0.9.0	1	32	expblk	4	500	0	0	0	0	0	stim4	1	38	0
120216	02:29:39	1	1	4.0.9.0	1	33	expblk	1	500	0	0	0	0	0	stim1	1	34	0
120216	02:29:39	1	1	4.0.9.0	1	34	expblk	4	500	0	0	0	0	0	org1	0	34	0
120216	02:29:39	1	1	4.0.9.0	1	35	expblk	1	500	0	0	0	0	0	stim1	1	51	0
120216	02:29:39	1	1	4.0.9.0	1	36	expblk	2	500	0	0	0	0	0	stim2	1	26	0
120216	02:29:39	1	1	4.0.9.0	1	37	expblk	1	500	0	0	0	0	0	stim1	1	41	0
120216	02:29:39	1	1	4.0.9.0	1	38	expblk	4	500	0	0	0	0	0	stim4	1	30	0
120216	02:29:39	1	1	4.0.9.0	1	39	expblk	1	500	0	0	0	0	0	stim1	1	40	0
120216	02:29:39	1	1	4.0.9.0	1	40	expblk	3	500	0	0	0	0	0	org1	0	36	0
120216	02:29:39	1	1	4.0.9.0	1	41	expblk	2	500	0	0	0	0	0	stim2	1	34	0
120216	02:29:39	1	1	4.0.9.0	1	42	expblk	3	500	0	0	0	0	0	stim3	1	45	0
120216	02:29:39	1	1	4.0.9.0	1	43	expblk	4	500	0	0	0	0	0	stim4	1	22	0
120216	02:29:39	1	1	4.0.9.0	1	44	expblk	3	500	0	0	0	0	0	stim3	1	39	0
120216	02:29:39	1	1	4.0.9.0	1	45	expblk	1	500	0	0	0	0	0	stim1	1	29	0
120216	02:29:39	1	1	4.0.9.0	1	46	expblk	2	500	0	0	0	0	0	org1	0	40	0
120216	02:29:39	1	1	4.0.9.0	1	47	expblk	1	500	0	0	0	0	0	stim1	1	45	0
120216	02:29:39	1	1	4.0.9.0	1	48	expblk	4	500	0	0	0	0	0	stim4	1	36	0
120216	02:29:39	1	1	4.0.9.0	1	49	expblk	2	500	0	0	0	0	0	stim2	1	43	0
120216	02:29:39	1	1	4.0.9.0	1	50	expblk	4	500	0	0	0	0	0	stim4	1	34	0
120216	02:29:39	1	1	4.0.9.0	1	51	expblk	3	500	0	0	0	0	0	stim3	1	42	0
120216	02:29:39	1	1	4.0.9.0	1	52	expblk	2	500	0	0	0	0	0	stim2	1	51	0
120216	02:29:39	1	1	4.0.9.0	1	53	expblk	1	500	0	0	0	0	0	org4	0	48	0
120216	02:29:39	1	1	4.0.9.0	1	54	expblk	4	500	0	0	0	0	0	stim4	1	58	0
120216	02:29:39	1	1	4.0.9.0	1	55	expblk	3	500	0	0	0	0	0	stim3	1	47	0
120216	02:29:39	1	1	4.0.9.0	1	56	expblk	4	500	0	0	0	0	0	stim4	1	32	0
120216	02:29:39	1	1	4.0.9.0	1	57	expblk	1	500	0	0	0	0	0	org3	0	39	0
120216	02:29:39	1	1	4.0.9.0	1	58	expblk	2	500	0	0	0	0	0	stim2	1	20	0
120216	02:29:39	1	1	4.0.9.0	1	59	expblk	4	500	0	0	0	0	0	org2	0	34	0
120216	02:29:39	1	1	4.0.9.0	1	60	expblk	2	500	0	0	0	0	0	org1	0	59	0
