date	time	group	subject	build	blocknum	trialnum	blockcode	trialcode	pretrialpause	posttrialpause	windowcenter	trialduration	trialtimeout	blocktimeout	response	correct	latency	inwindow
112516	01:08:31	1	3	4.0.9.0	2	1	exerciseblk1	NR1	500	0	0	0	0	0	33	1	998	0
112516	01:08:31	1	3	4.0.9.0	2	2	exerciseblk1	MR1	500	0	0	0	0	0	Ctrl+'Q'	1	0	0
112516	01:08:44	1	2	4.0.9.0	2	1	exerciseblk2	MR2	500	0	0	0	0	0	33	1	1294	0
112516	01:08:44	1	2	4.0.9.0	2	2	exerciseblk2	NR2	500	0	0	0	0	0	33	0	1047	0
112516	01:08:44	1	2	4.0.9.0	2	3	exerciseblk2	MR2	500	0	0	0	0	0	Ctrl+'Q'	1	0	0
112516	01:09:00	1	1	4.0.9.0	2	1	exerciseblk1	MR1	500	0	0	0	0	0	Ctrl+'Q'	1	0	0
112516	01:43:32	1	1	4.0.9.0	2	1	exerciseblk2	NR2	500	0	0	0	0	0	36	1	33	0
112516	01:43:32	1	1	4.0.9.0	2	2	exerciseblk2	MR2	500	0	0	0	0	0	33	1	46	0
112516	01:43:32	1	1	4.0.9.0	2	3	exerciseblk2	NR2	500	0	0	0	0	0	36	1	38	0
112516	01:43:32	1	1	4.0.9.0	2	4	exerciseblk2	MR2	500	0	0	0	0	0	33	1	36	0
112516	01:43:32	1	1	4.0.9.0	2	5	exerciseblk2	NR2	500	0	0	0	0	0	36	1	31	0
112516	01:43:32	1	1	4.0.9.0	2	6	exerciseblk2	MR2	500	0	0	0	0	0	33	1	38	0
112516	01:43:32	1	1	4.0.9.0	2	7	exerciseblk2	NR2	500	0	0	0	0	0	36	1	51	0
112516	01:43:32	1	1	4.0.9.0	2	8	exerciseblk2	MR2	500	0	0	0	0	0	33	1	27	0
112516	01:43:32	1	1	4.0.9.0	2	9	exerciseblk2	NR2	500	0	0	0	0	0	33	0	56	0
112516	01:43:32	1	1	4.0.9.0	2	10	exerciseblk2	MR2	500	0	0	0	0	0	33	1	27	0
112516	01:43:32	1	1	4.0.9.0	5	1	judgeblk2	NR2	500	0	0	0	0	0	36	1	32	0
112516	01:43:32	1	1	4.0.9.0	5	2	judgeblk2	MR2	500	0	0	0	0	0	36	0	27	0
112516	01:43:32	1	1	4.0.9.0	5	3	judgeblk2	NR2	500	0	0	0	0	0	33	0	45	0
112516	01:43:32	1	1	4.0.9.0	5	4	judgeblk2	MR2	500	0	0	0	0	0	33	1	47	0
112516	01:43:32	1	1	4.0.9.0	5	5	judgeblk2	NR2	500	0	0	0	0	0	36	1	24	0
112516	01:43:32	1	1	4.0.9.0	5	6	judgeblk2	MR2	500	0	0	0	0	0	33	1	24	0
112516	01:43:32	1	1	4.0.9.0	5	7	judgeblk2	NR2	500	0	0	0	0	0	36	1	53	0
112516	01:43:32	1	1	4.0.9.0	5	8	judgeblk2	MR2	500	0	0	0	0	0	36	0	34	0
112516	01:43:32	1	1	4.0.9.0	5	9	judgeblk2	NR2	500	0	0	0	0	0	Ctrl+'Q'	1	32	0
112516	01:44:45	1	1	4.0.9.0	2	1	exerciseblk2	NR2	500	0	0	0	0	0	33	0	35	0
112516	01:44:45	1	1	4.0.9.0	2	2	exerciseblk2	MR2	500	0	0	0	0	0	33	1	37	0
112516	01:44:45	1	1	4.0.9.0	2	3	exerciseblk2	NR2	500	0	0	0	0	0	33	0	37	0
112516	01:44:45	1	1	4.0.9.0	2	4	exerciseblk2	MR2	500	0	0	0	0	0	36	0	18	0
112516	01:44:45	1	1	4.0.9.0	2	5	exerciseblk2	NR2	500	0	0	0	0	0	33	0	47	0
112516	01:44:45	1	1	4.0.9.0	2	6	exerciseblk2	MR2	500	0	0	0	0	0	33	1	42	0
112516	01:44:45	1	1	4.0.9.0	2	7	exerciseblk2	NR2	500	0	0	0	0	0	36	1	44	0
112516	01:44:45	1	1	4.0.9.0	2	8	exerciseblk2	MR2	500	0	0	0	0	0	36	0	25	0
112516	01:44:45	1	1	4.0.9.0	2	9	exerciseblk2	NR2	500	0	0	0	0	0	36	1	33	0
112516	01:44:45	1	1	4.0.9.0	2	10	exerciseblk2	MR2	500	0	0	0	0	0	33	1	37	0
112516	01:44:45	1	1	4.0.9.0	5	1	judgeblk2	MR2	500	0	0	0	0	0	33	1	30	0
112516	01:44:45	1	1	4.0.9.0	5	2	judgeblk2	NR2	500	0	0	0	0	0	33	0	41	0
112516	01:44:45	1	1	4.0.9.0	5	3	judgeblk2	MR2	500	0	0	0	0	0	33	1	36	0
112516	01:44:45	1	1	4.0.9.0	5	4	judgeblk2	NR2	500	0	0	0	0	0	33	0	31	0
112516	01:44:45	1	1	4.0.9.0	5	5	judgeblk2	MR2	500	0	0	0	0	0	36	0	50	0
112516	01:44:45	1	1	4.0.9.0	5	6	judgeblk2	NR2	500	0	0	0	0	0	36	1	56	0
112516	01:44:45	1	1	4.0.9.0	5	7	judgeblk2	MR2	500	0	0	0	0	0	33	1	46	0
112516	01:44:45	1	1	4.0.9.0	5	8	judgeblk2	NR2	500	0	0	0	0	0	Ctrl+'Q'	1	0	0
112516	01:45:26	1	1	4.0.9.0	2	1	exerciseblk1	MR1	500	0	0	0	0	0	36	1	1690	0
112516	01:45:26	1	1	4.0.9.0	2	2	exerciseblk1	NR1	500	0	0	0	0	0	33	1	1228	0
112516	01:45:26	1	1	4.0.9.0	2	3	exerciseblk1	MR1	500	0	0	0	0	0	36	1	821	0
112516	01:45:26	1	1	4.0.9.0	2	4	exerciseblk1	NR1	500	0	0	0	0	0	33	1	1156	0
112516	01:45:26	1	1	4.0.9.0	2	5	exerciseblk1	MR1	500	0	0	0	0	0	Ctrl+'Q'	1	2027	0
112516	01:46:40	1	1	4.0.9.0	2	1	exerciseblk1	NR1	500	0	0	0	0	0	Ctrl+'Q'	1	2941	0
112516	01:47:01	1	1	4.0.9.0	2	1	exerciseblk2	NR2	500	0	0	0	0	0	Ctrl+'Q'	1	2559	0
112516	01:47:30	1	1	4.0.9.0	2	1	exerciseblk2	NR2	500	0	0	0	0	0	Ctrl+'Q'	1	2309	0
112516	01:48:22	1	1	4.0.9.0	2	1	exerciseblk1	MR1	500	0	0	0	0	0	33	0	749	0
112516	01:48:22	1	1	4.0.9.0	2	2	exerciseblk1	NR1	500	0	0	0	0	0	Ctrl+'Q'	1	4115	0
112516	01:48:38	1	1	4.0.9.0	2	1	exerciseblk2	NR2	500	0	0	0	0	0	36	1	492	0
112516	01:48:38	1	1	4.0.9.0	2	2	exerciseblk2	MR2	500	0	0	0	0	0	33	1	909	0
112516	01:48:38	1	1	4.0.9.0	2	3	exerciseblk2	NR2	500	0	0	0	0	0	33	0	814	0
112516	01:48:38	1	1	4.0.9.0	2	4	exerciseblk2	MR2	500	0	0	0	0	0	33	1	870	0
112516	01:48:38	1	1	4.0.9.0	2	5	exerciseblk2	NR2	500	0	0	0	0	0	36	1	994	0
112516	01:48:38	1	1	4.0.9.0	2	6	exerciseblk2	MR2	500	0	0	0	0	0	33	1	1153	0
112516	01:48:38	1	1	4.0.9.0	2	7	exerciseblk2	NR2	500	0	0	0	0	0	33	0	713	0
112516	01:48:38	1	1	4.0.9.0	2	8	exerciseblk2	MR2	500	0	0	0	0	0	33	1	816	0
112516	01:48:38	1	1	4.0.9.0	2	9	exerciseblk2	NR2	500	0	0	0	0	0	36	1	791	0
112516	01:48:38	1	1	4.0.9.0	2	10	exerciseblk2	MR2	500	0	0	0	0	0	33	1	1196	0
112516	01:49:57	1	1	4.0.9.0	2	1	exerciseblk2	NR2	500	0	0	0	0	0	33	0	1298	0
112516	01:49:57	1	1	4.0.9.0	2	2	exerciseblk2	MR2	500	0	0	0	0	0	36	0	2890	0
112516	01:49:57	1	1	4.0.9.0	2	3	exerciseblk2	NR2	500	0	0	0	0	0	33	0	1055	0
112516	01:49:57	1	1	4.0.9.0	2	4	exerciseblk2	MR2	500	0	0	0	0	0	36	0	1033	0
112516	01:49:57	1	1	4.0.9.0	2	5	exerciseblk2	NR2	500	0	0	0	0	0	33	0	1044	0
112516	01:49:57	1	1	4.0.9.0	2	6	exerciseblk2	MR2	500	0	0	0	0	0	36	0	1032	0
112516	01:49:57	1	1	4.0.9.0	2	7	exerciseblk2	NR2	500	0	0	0	0	0	33	0	947	0
112516	01:49:57	1	1	4.0.9.0	2	8	exerciseblk2	MR2	500	0	0	0	0	0	33	1	810	0
112516	01:49:57	1	1	4.0.9.0	2	9	exerciseblk2	NR2	500	0	0	0	0	0	36	1	998	0
112516	01:49:57	1	1	4.0.9.0	2	10	exerciseblk2	MR2	500	0	0	0	0	0	33	1	484	0
112516	01:50:33	1	1	4.0.9.0	2	1	exerciseblk2	MR2	500	0	0	0	0	0	33	1	1159	0
112516	01:50:33	1	1	4.0.9.0	2	2	exerciseblk2	NR2	500	0	0	0	0	0	33	0	1421	0
112516	01:50:33	1	1	4.0.9.0	2	3	exerciseblk2	MR2	500	0	0	0	0	0	36	0	1199	0
112516	01:50:33	1	1	4.0.9.0	2	4	exerciseblk2	NR2	500	0	0	0	0	0	33	0	1212	0
112516	01:50:33	1	1	4.0.9.0	2	5	exerciseblk2	MR2	500	0	0	0	0	0	36	0	1648	0
112516	01:50:33	1	1	4.0.9.0	2	6	exerciseblk2	NR2	500	0	0	0	0	0	33	0	1161	0
112516	01:50:33	1	1	4.0.9.0	2	7	exerciseblk2	MR2	500	0	0	0	0	0	36	0	1127	0
112516	01:50:33	1	1	4.0.9.0	2	8	exerciseblk2	NR2	500	0	0	0	0	0	33	0	1543	0
112516	01:50:33	1	1	4.0.9.0	2	9	exerciseblk2	MR2	500	0	0	0	0	0	36	0	980	0
112516	01:50:33	1	1	4.0.9.0	2	10	exerciseblk2	NR2	500	0	0	0	0	0	33	0	1250	0
