date	time	group	subject	build	blocknum	trialnum	blockcode	trialcode	pretrialpause	posttrialpause	windowcenter	trialduration	trialtimeout	blocktimeout	response	correct	latency	inwindow	stimulusnumber1	stimulusitem1	stimulusvpos1	stimulushpos1	stimulusonset1	stimulusnumber2	stimulusitem2	stimulusvpos2	stimulushpos2	stimulusonset2
112416	23:40:28	1	1	4.0.9.0	2	1	exerciseblk	MR	500	0	0	0	0	0	36	1	2115	0	1	√	50pct	50pct	3005	0	0	0	0	0
112416	23:40:28	1	1	4.0.9.0	2	2	exerciseblk	NR	500	0	0	0	0	0	33	1	1632	0	1	√	50pct	50pct	2454	0	0	0	0	0
112416	23:40:28	1	1	4.0.9.0	2	3	exerciseblk	MR	500	0	0	0	0	0	33	0	785	0	1	×	50pct	50pct	1586	0	0	0	0	0
112416	23:40:28	1	1	4.0.9.0	2	4	exerciseblk	NR	500	0	0	0	0	0	36	0	1663	0	1	×	50pct	50pct	2471	0	0	0	0	0
112416	23:40:28	1	1	4.0.9.0	2	5	exerciseblk	MR	500	0	0	0	0	0	33	0	673	0	1	×	50pct	50pct	1619	0	0	0	0	0
112416	23:40:28	1	1	4.0.9.0	2	6	exerciseblk	NR	500	0	0	0	0	0	36	0	2808	0	1	×	50pct	50pct	3640	0	0	0	0	0
112416	23:40:28	1	1	4.0.9.0	2	7	exerciseblk	MR	500	0	0	0	0	0	33	0	987	0	1	×	50pct	50pct	1970	0	0	0	0	0
112416	23:40:28	1	1	4.0.9.0	2	8	exerciseblk	NR	500	0	0	0	0	0	33	1	270	0	1	√	50pct	50pct	1252	0	0	0	0	0
112416	23:40:28	1	1	4.0.9.0	2	9	exerciseblk	MR	500	0	0	0	0	0	33	0	248	0	1	×	50pct	50pct	1018	0	0	0	0	0
112416	23:40:28	1	1	4.0.9.0	2	10	exerciseblk	NR	500	0	0	0	0	0	33	1	205	0	1	√	50pct	50pct	1135	0	0	0	0	0
112416	23:40:28	1	1	4.0.9.0	3	1	judgeblk	NR	500	0	0	0	0	0	33	1	766	0	1	√	50pct	50pct	1686	0	0	0	0	0
112416	23:40:28	1	1	4.0.9.0	3	2	judgeblk	MR	500	0	0	0	0	0	33	0	484	0	1	×	50pct	50pct	1252	0	0	0	0	0
112416	23:40:28	1	1	4.0.9.0	3	3	judgeblk	NR	500	0	0	0	0	0	36	0	1119	0	1	×	50pct	50pct	1886	0	0	0	0	0
112416	23:40:28	1	1	4.0.9.0	3	4	judgeblk	MR	500	0	0	0	0	0	33	0	763	0	1	×	50pct	50pct	1636	0	0	0	0	0
112416	23:40:28	1	1	4.0.9.0	3	5	judgeblk	NR	500	0	0	0	0	0	33	1	669	0	1	√	50pct	50pct	1569	0	0	0	0	0
112416	23:40:28	1	1	4.0.9.0	3	6	judgeblk	MR	500	0	0	0	0	0	33	0	741	0	1	×	50pct	50pct	1603	0	0	0	0	0
112416	23:40:28	1	1	4.0.9.0	3	7	judgeblk	NR	500	0	0	0	0	0	36	0	558	0	1	×	50pct	50pct	1369	0	0	0	0	0
112416	23:40:28	1	1	4.0.9.0	3	8	judgeblk	MR	500	0	0	0	0	0	Ctrl+'Q'	1	483	0	1	√	50pct	50pct	-1	0	0	0	0	0
112416	23:45:08	1	1	4.0.9.0	2	1	exerciseblk	MR	500	0	0	0	0	0	36	1	51	0	1	+	50pct	50pct	0	1	blank	50pct	50pct	483
112416	23:45:08	1	1	4.0.9.0	2	2	exerciseblk	NR	500	0	0	0	0	0	33	1	44	0	1	√	50pct	50pct	985	0	0	0	0	0
112416	23:45:08	1	1	4.0.9.0	2	3	exerciseblk	MR	500	0	0	0	0	0	36	1	33	0	1	+	50pct	50pct	0	1	+	50pct	50pct	0
112416	23:45:08	1	1	4.0.9.0	2	4	exerciseblk	NR	500	0	0	0	0	0	33	1	42	0	1	√	50pct	50pct	1001	0	0	0	0	0
112416	23:45:08	1	1	4.0.9.0	2	5	exerciseblk	MR	500	0	0	0	0	0	36	1	29	0	1	+	50pct	50pct	0	1	+	50pct	50pct	0
112416	23:45:08	1	1	4.0.9.0	2	6	exerciseblk	NR	500	0	0	0	0	0	36	0	27	0	1	×	50pct	50pct	784	0	0	0	0	0
112416	23:45:08	1	1	4.0.9.0	2	7	exerciseblk	MR	500	0	0	0	0	0	36	1	49	0	1	+	50pct	50pct	0	1	+	50pct	50pct	0
112416	23:45:08	1	1	4.0.9.0	2	8	exerciseblk	NR	500	0	0	0	0	0	36	0	32	0	1	×	50pct	50pct	868	0	0	0	0	0
112416	23:45:08	1	1	4.0.9.0	2	9	exerciseblk	MR	500	0	0	0	0	0	36	1	36	0	1	+	50pct	50pct	0	1	+	50pct	50pct	0
112416	23:45:08	1	1	4.0.9.0	2	10	exerciseblk	NR	500	0	0	0	0	0	33	1	31	0	1	√	50pct	50pct	884	0	0	0	0	0
112416	23:45:08	1	1	4.0.9.0	3	1	judgeblk	MR	500	0	0	0	0	0	33	0	31	0	1	+	50pct	50pct	0	1	+	50pct	50pct	0
112416	23:45:08	1	1	4.0.9.0	3	2	judgeblk	NR	500	0	0	0	0	0	33	1	35	0	1	√	50pct	50pct	851	0	0	0	0	0
112416	23:45:08	1	1	4.0.9.0	3	3	judgeblk	MR	500	0	0	0	0	0	33	0	66	0	1	+	50pct	50pct	0	1	+	50pct	50pct	0
112416	23:45:08	1	1	4.0.9.0	3	4	judgeblk	NR	500	0	0	0	0	0	Ctrl+'Q'	1	0	0	1	√	50pct	50pct	-1	0	0	0	0	0
112416	23:48:40	1	1	4.0.9.0	2	1	exerciseblk	NR	500	0	0	0	0	0	33	1	31	0	1	√	50pct	50pct	935	0	0	0	0	0
112416	23:48:40	1	1	4.0.9.0	2	2	exerciseblk	MR	500	0	0	0	0	0	33	0	28	0	1	+	50pct	50pct	0	1	blank	50pct	50pct	533
112416	23:48:40	1	1	4.0.9.0	2	3	exerciseblk	NR	500	0	0	0	0	0	36	0	48	0	1	×	50pct	50pct	868	0	0	0	0	0
112416	23:48:40	1	1	4.0.9.0	2	4	exerciseblk	MR	500	0	0	0	0	0	33	0	42	0	1	+	50pct	50pct	0	1	+	50pct	50pct	0
112416	23:48:40	1	1	4.0.9.0	2	5	exerciseblk	NR	500	0	0	0	0	0	33	1	25	0	1	√	50pct	50pct	985	0	0	0	0	0
112416	23:48:40	1	1	4.0.9.0	2	6	exerciseblk	MR	500	0	0	0	0	0	36	1	29	0	1	+	50pct	50pct	0	1	+	50pct	50pct	0
112416	23:48:40	1	1	4.0.9.0	2	7	exerciseblk	NR	500	0	0	0	0	0	36	0	37	0	1	×	50pct	50pct	935	0	0	0	0	0
112416	23:48:40	1	1	4.0.9.0	2	8	exerciseblk	MR	500	0	0	0	0	0	33	0	48	0	1	+	50pct	50pct	0	1	+	50pct	50pct	0
112416	23:48:40	1	1	4.0.9.0	2	9	exerciseblk	NR	500	0	0	0	0	0	33	1	53	0	1	√	50pct	50pct	918	0	0	0	0	0
112416	23:48:40	1	1	4.0.9.0	2	10	exerciseblk	MR	500	0	0	0	0	0	36	1	53	0	1	+	50pct	50pct	0	1	+	50pct	50pct	0
112416	23:48:40	1	1	4.0.9.0	4	1	judgeblk	NR	500	0	0	0	0	0	33	1	14	0	1	√	50pct	50pct	918	0	0	0	0	0
112416	23:48:40	1	1	4.0.9.0	4	2	judgeblk	MR	500	0	0	0	0	0	Ctrl+'Q'	1	0	0	1	+	50pct	50pct	0	1	+	50pct	50pct	0
112416	23:49:08	1	1	4.0.9.0	2	1	exerciseblk	MR	500	0	0	0	0	0	36	1	829	0	1	+	50pct	50pct	0	1	blank	50pct	50pct	416
112416	23:49:08	1	1	4.0.9.0	2	2	exerciseblk	NR	500	0	0	0	0	0	36	0	263	0	1	×	50pct	50pct	1185	0	0	0	0	0
112416	23:49:08	1	1	4.0.9.0	2	3	exerciseblk	MR	500	0	0	0	0	0	36	1	373	0	1	+	50pct	50pct	0	1	+	50pct	50pct	0
112416	23:49:08	1	1	4.0.9.0	2	4	exerciseblk	NR	500	0	0	0	0	0	33	1	344	0	1	√	50pct	50pct	1252	0	0	0	0	0
112416	23:49:08	1	1	4.0.9.0	2	5	exerciseblk	MR	500	0	0	0	0	0	36	1	361	0	1	+	50pct	50pct	0	1	+	50pct	50pct	0
112416	23:49:08	1	1	4.0.9.0	2	6	exerciseblk	NR	500	0	0	0	0	0	36	0	411	0	1	×	50pct	50pct	1369	0	0	0	0	0
112416	23:49:08	1	1	4.0.9.0	2	7	exerciseblk	MR	500	0	0	0	0	0	36	1	353	0	1	+	50pct	50pct	0	1	+	50pct	50pct	0
112416	23:49:08	1	1	4.0.9.0	2	8	exerciseblk	NR	500	0	0	0	0	0	33	1	327	0	1	√	50pct	50pct	1135	0	0	0	0	0
112416	23:49:08	1	1	4.0.9.0	2	9	exerciseblk	MR	500	0	0	0	0	0	36	1	258	0	1	+	50pct	50pct	0	1	+	50pct	50pct	0
112416	23:49:08	1	1	4.0.9.0	2	10	exerciseblk	NR	500	0	0	0	0	0	33	1	466	0	1	√	50pct	50pct	1319	0	0	0	0	0
112416	23:49:08	1	1	4.0.9.0	4	1	judgeblk	MR	500	0	0	0	0	0	Ctrl+'Q'	1	646	0	1	+	50pct	50pct	0	1	+	50pct	50pct	0
112416	23:50:10	1	1	4.0.9.0	2	1	exerciseblk	MR	500	0	0	0	0	0	36	1	1331	0	1	+	50pct	50pct	0	1	blank	50pct	50pct	499
112416	23:50:10	1	1	4.0.9.0	2	2	exerciseblk	NR	500	0	0	0	0	0	33	1	955	0	1	√	50pct	50pct	1936	0	0	0	0	0
112416	23:50:10	1	1	4.0.9.0	2	3	exerciseblk	MR	500	0	0	0	0	0	36	1	612	0	1	+	50pct	50pct	0	1	+	50pct	50pct	0
112416	23:50:10	1	1	4.0.9.0	2	4	exerciseblk	NR	500	0	0	0	0	0	33	1	657	0	1	√	50pct	50pct	1452	0	0	0	0	0
112416	23:50:10	1	1	4.0.9.0	2	5	exerciseblk	MR	500	0	0	0	0	0	36	1	454	0	1	+	50pct	50pct	0	1	+	50pct	50pct	0
112416	23:50:10	1	1	4.0.9.0	2	6	exerciseblk	NR	500	0	0	0	0	0	33	1	457	0	1	√	50pct	50pct	1436	0	0	0	0	0
112416	23:50:10	1	1	4.0.9.0	2	7	exerciseblk	MR	500	0	0	0	0	0	36	1	998	0	1	+	50pct	50pct	0	1	+	50pct	50pct	0
112416	23:50:10	1	1	4.0.9.0	2	8	exerciseblk	NR	500	0	0	0	0	0	33	1	427	0	1	√	50pct	50pct	1385	0	0	0	0	0
112416	23:50:10	1	1	4.0.9.0	2	9	exerciseblk	MR	500	0	0	0	0	0	36	1	314	0	1	+	50pct	50pct	0	1	+	50pct	50pct	0
112416	23:50:10	1	1	4.0.9.0	2	10	exerciseblk	NR	500	0	0	0	0	0	33	1	478	0	1	√	50pct	50pct	1369	0	0	0	0	0
112416	23:50:10	1	1	4.0.9.0	4	1	judgeblk	MR	500	0	0	0	0	0	Ctrl+'Q'	1	0	0	1	+	50pct	50pct	0	1	+	50pct	50pct	0
112516	00:16:20	1	1	4.0.9.0	1	1	exerciseblk	NR	500	0	0	0	0	0	Ctrl+'Q'	1	3309	0
112516	00:17:20	1	1	4.0.9.0	1	1	exerciseblk	MR	500	0	0	0	0	0	Ctrl+'Q'	1	1011	0
112516	00:25:32	1	1	4.0.9.0	2	1	exerciseblk	NR	500	0	0	0	0	0	33	1	1513	0
112516	00:25:32	1	1	4.0.9.0	2	2	exerciseblk	MR	500	0	0	0	0	0	Ctrl+'Q'	1	4746	0
