date	time	group	subject	build	blocknum	trialnum	blockcode	trialcode	pretrialpause	posttrialpause	windowcenter	trialduration	trialtimeout	blocktimeout	response	correct	latency	inwindow	stimulusnumber1	stimulusitem1	stimulusvpos1	stimulushpos1	stimulusonset1	stimulusnumber2	stimulusitem2	stimulusvpos2	stimulushpos2	stimulusonset2	stimulusnumber3	stimulusitem3	stimulusvpos3	stimulushpos3	stimulusonset3	stimulusnumber4	stimulusitem4	stimulusvpos4	stimulushpos4	stimulusonset4	stimulusnumber5	stimulusitem5	stimulusvpos5	stimulushpos5	stimulusonset5
120516	15:02:38	1	1	4.0.9.0	3	1	picblk	pic3	100	0	0	0	0	0	lbuttondown	0	12328	0	1	+	50pct	50pct	0	1	c.jpg	22	30	816	1	c.jpg	52	30	816	1	pic3.jpg	22	50	816	1	c.jpg	52	50	816
120516	15:02:38	1	1	4.0.9.0	3	2	picblk	pic13	100	0	0	0	0	0	lbuttondown	1	1273	0	1	+	50pct	50pct	0	1	pic13.jpg	22	30	816	1	c.jpg	52	30	816	1	c.jpg	22	50	816	1	c.jpg	52	50	816
120516	15:02:38	1	1	4.0.9.0	3	3	picblk	pic11	100	0	0	0	0	0	lbuttondown	1	1061	0	1	+	50pct	50pct	0	1	c.jpg	22	30	816	1	c.jpg	52	30	816	1	pic11.jpg	22	50	816	1	c.jpg	52	50	816
120516	15:02:38	1	1	4.0.9.0	3	4	picblk	pic14	100	0	0	0	0	0	lbuttondown	1	1226	0	1	+	50pct	50pct	0	1	c.jpg	22	30	816	1	pic14.jpg	52	30	816	1	c.jpg	22	50	816	1	c.jpg	52	50	816
120516	15:02:38	1	1	4.0.9.0	3	5	picblk	pic10	100	0	0	0	0	0	lbuttondown	1	1467	0	1	+	50pct	50pct	0	1	c.jpg	22	30	816	1	pic10.jpg	52	30	816	1	c.jpg	22	50	816	1	c.jpg	52	50	816
120516	15:02:38	1	1	4.0.9.0	3	6	picblk	pic4	100	0	0	0	0	0	lbuttondown	1	909	0	1	+	50pct	50pct	0	1	c.jpg	22	30	816	1	c.jpg	52	30	816	1	c.jpg	22	50	816	1	pic4.jpg	52	50	816
120516	15:02:38	1	1	4.0.9.0	3	7	picblk	pic8	100	0	0	0	0	0	Ctrl+'Q'	1	2329	0	1	+	50pct	50pct	0	1	c.jpg	22	30	816	1	c.jpg	52	30	816	1	c.jpg	22	50	816	1	pic8.jpg	52	50	816
120516	15:09:49	1	1	4.0.9.0	3	1	picblk	pic6	100	0	0	0	0	0	lbuttondown	1	6664	0	1	+	50pct	50pct	0	1	c.jpg	10	10	816	1	pic6.jpg	52	10	816	1	c.jpg	10	50	816	1	c.jpg	52	50	816
120516	15:09:49	1	1	4.0.9.0	3	2	picblk	pic4	100	0	0	0	0	0	lbuttondown	1	925	0	1	+	50pct	50pct	0	1	c.jpg	10	10	816	1	c.jpg	52	10	816	1	c.jpg	10	50	816	1	pic4.jpg	50	50	816
120516	15:09:49	1	1	4.0.9.0	3	3	picblk	pic14	100	0	0	0	0	0	Ctrl+'Q'	1	1738	0	1	+	50pct	50pct	0	1	c.jpg	10	10	816	1	pic14.jpg	52	10	816	1	c.jpg	10	50	816	1	c.jpg	52	50	816
120516	15:18:01	1	1	4.0.9.0	3	1	picblk	pic9	100	0	0	0	0	0	lbuttondown	0	1603	0	1	+	50pct	50pct	0	1	pic9.jpg	52	10	816	1	result.jpg	52	10	816	1	result.jpg	10	50	816	1	result.jpg	52	50	816
120516	15:18:01	1	1	4.0.9.0	3	2	picblk	pic15	100	0	0	0	0	0	lbuttondown	0	15783	0	1	+	50pct	50pct	0	1	result.jpg	10	10	816	1	result.jpg	52	10	816	1	pic15.jpg	52	50	816	1	result.jpg	52	50	816
120516	15:18:01	1	1	4.0.9.0	3	3	picblk	pic11	100	0	0	0	0	0	lbuttondown	0	3051	0	1	+	50pct	50pct	0	1	result.jpg	10	10	816	1	result.jpg	52	10	816	1	pic11.jpg	52	50	816	1	result.jpg	52	50	816
120516	15:18:01	1	1	4.0.9.0	3	4	picblk	pic5	100	0	0	0	0	0	Ctrl+'Q'	1	3360	0	1	+	50pct	50pct	0	1	pic5.jpg	10	10	816	1	result.jpg	52	10	816	1	result.jpg	10	50	816	1	result.jpg	52	50	816
120516	15:20:17	1	1	4.0.9.0	3	1	picblk	pic14	100	0	0	0	0	0	lbuttondown	1	1517	0	1	+	50pct	50pct	0	1	result.jpg	10	10	816	1	pic14.jpg	52	10	816	1	result.jpg	10	50	816	1	result.jpg	52	50	816
120516	15:20:17	1	1	4.0.9.0	3	2	picblk	pic8	100	0	0	0	0	0	lbuttondown	1	4317	0	1	+	50pct	50pct	0	1	result.jpg	10	10	816	1	result.jpg	52	10	816	1	result.jpg	10	50	816	1	pic8.jpg	52	50	816
120516	15:20:17	1	1	4.0.9.0	3	3	picblk	pic6	100	0	0	0	0	0	lbuttondown	1	4196	0	1	+	50pct	50pct	0	1	result.jpg	10	10	816	1	pic6.jpg	52	10	816	1	result.jpg	10	50	816	1	result.jpg	52	50	816
120516	15:20:17	1	1	4.0.9.0	3	4	picblk	pic5	100	0	0	0	0	0	lbuttondown	0	11152	0	1	+	50pct	50pct	0	1	pic5.jpg	10	10	816	1	result.jpg	52	10	816	1	result.jpg	10	50	816	1	result.jpg	52	50	816
120516	15:20:17	1	1	4.0.9.0	3	5	picblk	pic4	100	0	0	0	0	0	Ctrl+'Q'	1	4867	0	1	+	50pct	50pct	0	1	result.jpg	10	10	816	1	result.jpg	52	10	816	1	result.jpg	10	50	816	1	pic4.jpg	50	50	816
120516	15:22:12	1	1\	4.0.9.0	3	1	picblk	pic9	100	0	0	0	0	0	lbuttondown	0	4590	0	1	+	50pct	50pct	0	1	pic9.jpg	52	10	816	1	result.jpg	52	10	816	1	result.jpg	10	60	816	1	result.jpg	52	60	816
120516	15:22:12	1	1\	4.0.9.0	3	2	picblk	pic14	100	0	0	0	0	0	lbuttondown	1	1976	0	1	+	50pct	50pct	0	1	result.jpg	10	10	816	1	pic14.jpg	52	10	816	1	result.jpg	10	60	816	1	result.jpg	52	60	816
120516	15:22:12	1	1\	4.0.9.0	3	3	picblk	pic13	100	0	0	0	0	0	lbuttondown	1	1592	0	1	+	50pct	50pct	0	1	pic13.jpg	10	10	816	1	result.jpg	52	10	816	1	result.jpg	10	60	816	1	result.jpg	52	60	816
120516	15:22:12	1	1\	4.0.9.0	3	4	picblk	pic15	100	0	0	0	0	0	Ctrl+'Q'	1	4386	0	1	+	50pct	50pct	0	1	result.jpg	10	10	816	1	result.jpg	52	10	816	1	pic15.jpg	52	60	816	1	result.jpg	52	60	816
120516	15:24:05	1	1	4.0.9.0	3	1	picblk	pic4	100	0	0	0	0	0	Ctrl+'Q'	1	17250	0	1	+	50pct	50pct	0	1	result.jpg	10	10	816	1	result.jpg	52	10	816	1	result.jpg	10	60	816	1	pic4.jpg	52	60	816
120516	15:25:49	1	1	4.0.9.0	3	1	picblk	pic9	100	0	0	0	0	0	Ctrl+'Q'	1	8614	0	1	+	50pct	50pct	0	1	pic9.jpg	52	10	816	1	result.jpg	52	10	816	1	result.jpg	10	55	816	1	result.jpg	52	55	816
120516	15:27:45	1	1	4.0.9.0	3	1	picblk	pic10	100	0	0	0	0	0	lbuttondown	1	1664	0	1	+	50pct	50pct	0	1	result.jpg	10	10	816	1	pic10.jpg	52	10	816	1	result.jpg	10	55	816	1	result.jpg	52	55	816
120516	15:27:45	1	1	4.0.9.0	3	2	picblk	pic7	100	0	0	0	0	0	lbuttondown	0	1693	0	1	+	50pct	50pct	0	1	result.jpg	10	10	816	1	result.jpg	52	10	816	1	pic7.jpg	10	55	816	1	result.jpg	52	55	816
120516	15:27:45	1	1	4.0.9.0	3	3	picblk	pic12	100	0	0	0	0	0	lbuttondown	1	1538	0	1	+	50pct	50pct	0	1	result.jpg	10	10	816	1	result.jpg	52	10	816	1	result.jpg	10	55	816	1	pic12.jpg	52	55	816
120516	15:27:45	1	1	4.0.9.0	3	4	picblk	pic1	100	0	0	0	0	0	lbuttondown	0	7865	0	1	+	50pct	50pct	0	1	pic1.jpg	10	10	816	1	result.jpg	52	10	816	1	result.jpg	10	55	816	1	result.jpg	52	55	816
120516	15:27:45	1	1	4.0.9.0	3	5	picblk	pic14	100	0	0	0	0	0	lbuttondown	1	8533	0	1	+	50pct	50pct	0	1	result.jpg	10	10	816	1	pic14.jpg	52	10	816	1	result.jpg	10	55	816	1	result.jpg	52	55	816
120516	15:27:45	1	1	4.0.9.0	3	6	picblk	pic5	100	0	0	0	0	0	Ctrl+'Q'	1	784	0	1	+	50pct	50pct	0	1	pic5.jpg	10	10	816	1	result.jpg	52	10	816	1	result.jpg	10	55	816	1	result.jpg	52	55	816
120616	15:41:38	1	1	4.0.9.0	3	1	picblk	pic13	100	0	0	0	0	0	lbuttondown	0	6744	0	1	+	50pct	50pct	0	1	pic13.jpg	10	10	816	1	result.jpg	52	10	816	1	result.jpg	10	55	816	1	result.jpg	52	55	816
120616	15:41:38	1	1	4.0.9.0	3	2	picblk	pic8	100	0	0	0	0	0	lbuttondown	0	1568	0	1	+	50pct	50pct	0	1	result.jpg	10	10	816	1	result.jpg	52	10	816	1	result.jpg	10	55	816	1	pic8.jpg	52	55	816
120616	15:41:38	1	1	4.0.9.0	3	3	picblk	pic6	100	0	0	0	0	0	Ctrl+'Q'	1	1816	0	1	+	50pct	50pct	0	1	result.jpg	10	10	816	1	pic6.jpg	52	10	816	1	result.jpg	10	55	816	1	result.jpg	52	55	816
120616	15:43:28	1	1	4.0.9.0	3	1	picblk	pic11	100	0	0	0	0	0	lbuttondown	0	6383	0	1	+	50pct	50pct	0	1	result.jpg	10	10	816	1	result.jpg	52	10	816	1	pic11.jpg	52	55	816	1	result.jpg	52	55	816
120616	15:43:28	1	1	4.0.9.0	3	2	picblk	pic3	100	0	0	0	0	0	lbuttondown	0	4441	0	1	+	50pct	50pct	0	1	result.jpg	10	10	816	1	result.jpg	52	10	816	1	pic3.jpg	10	55	816	1	result.jpg	52	55	816
120616	15:43:28	1	1	4.0.9.0	3	3	picblk	pic14	100	0	0	0	0	0	lbuttondown	1	1595	0	1	+	50pct	50pct	0	1	result.jpg	10	10	816	1	pic14.jpg	52	10	816	1	result.jpg	10	55	816	1	result.jpg	52	55	816
120616	15:43:28	1	1	4.0.9.0	3	4	picblk	pic13	100	0	0	0	0	0	Ctrl+'Q'	1	9134	0	1	+	50pct	50pct	0	1	pic13.jpg	10	10	816	1	result.jpg	52	10	816	1	result.jpg	10	55	816	1	result.jpg	52	55	816
120616	15:48:08	1	1	4.0.9.0	3	1	picblk	pic5	100	0	0	0	0	0	lbuttondown	0	3557	0	1	+	50pct	50pct	0	1	pic5.jpg	10	10	816	1	result.jpg	52	10	816	1	result.jpg	10	60	816	1	result.jpg	52	60	816
120616	15:48:08	1	1	4.0.9.0	3	2	picblk	pic7	100	0	0	0	0	0	Ctrl+'Q'	1	25414	0	1	+	50pct	50pct	0	1	result.jpg	10	10	816	1	result.jpg	52	10	816	1	pic7.jpg	10	60	816	1	result.jpg	52	60	816
120616	15:50:51	1	1	4.0.9.0	3	1	picblk	pic8	100	0	0	0	0	0	lbuttondown	0	2415	0	1	+	50pct	50pct	0	1	result.jpg	10	10	816	1	result.jpg	52	10	816	1	result.jpg	10	60	816	1	pic8.jpg	52	60	816
120616	15:50:51	1	1	4.0.9.0	3	2	picblk	pic9	100	0	0	0	0	0	lbuttondown	0	603	0	1	+	50pct	50pct	0	1	pic9.jpg	52	10	816	1	result.jpg	52	10	816	1	result.jpg	10	60	816	1	result.jpg	52	60	816
120616	15:50:51	1	1	4.0.9.0	3	3	picblk	pic6	100	0	0	0	0	0	lbuttondown	1	1196	0	1	+	50pct	50pct	0	1	result.jpg	10	10	816	1	pic6.jpg	52	10	816	1	result.jpg	10	60	816	1	result.jpg	52	60	816
120616	15:50:51	1	1	4.0.9.0	3	4	picblk	pic12	100	0	0	0	0	0	lbuttondown	1	722	0	1	+	50pct	50pct	0	1	result.jpg	10	10	816	1	result.jpg	52	10	816	1	result.jpg	10	60	816	1	pic12.jpg	52	60	816
120616	15:50:51	1	1	4.0.9.0	3	5	picblk	pic13	100	0	0	0	0	0	lbuttondown	1	879	0	1	+	50pct	50pct	0	1	pic13.jpg	10	10	817	1	result.jpg	52	10	817	1	result.jpg	10	60	817	1	result.jpg	52	60	817
120616	15:50:51	1	1	4.0.9.0	3	6	picblk	pic3	100	0	0	0	0	0	Ctrl+'Q'	1	3972	0	1	+	50pct	50pct	0	1	result.jpg	10	10	816	1	result.jpg	52	10	816	1	pic3.jpg	10	60	816	1	result.jpg	52	60	816
120616	15:56:51	1	1	4.0.9.0	3	1	picblk	pic2	100	0	0	0	0	0	Ctrl+'Q'	1	4458	0	1	+	50pct	50pct	0	1	result.jpg	10	10	8316	1	pic2.jpg	52	10	8316	1	result.jpg	10	70	8316	1	result.jpg	52	70	8316
120616	15:57:20	1	1	4.0.9.0	3	1	picblk	pic7	100	0	0	0	0	0	lbuttondown	0	3124	0	1	+	50pct	50pct	0	1	result.jpg	10	10	816	1	result.jpg	52	10	816	1	pic7.jpg	10	70	816	1	result.jpg	52	70	816
120616	15:57:20	1	1	4.0.9.0	3	2	picblk	pic4	100	0	0	0	0	0	lbuttondown	0	1204	0	1	+	50pct	50pct	0	1	result.jpg	10	10	816	1	result.jpg	52	10	816	1	result.jpg	10	70	816	1	pic4.jpg	52	70	816
120616	15:57:20	1	1	4.0.9.0	3	3	picblk	pic5	100	0	0	0	0	0	lbuttondown	1	748	0	1	+	50pct	50pct	0	1	pic5.jpg	10	10	816	1	result.jpg	52	10	816	1	result.jpg	10	70	816	1	result.jpg	52	70	816
120616	15:57:20	1	1	4.0.9.0	3	4	picblk	pic13	100	0	0	0	0	0	lbuttondown	1	1073	0	1	+	50pct	50pct	0	1	pic13.jpg	10	10	816	1	result.jpg	52	10	816	1	result.jpg	10	70	816	1	result.jpg	52	70	816
120616	15:57:20	1	1	4.0.9.0	3	5	picblk	pic2	100	0	0	0	0	0	Ctrl+'Q'	1	2748	0	1	+	50pct	50pct	0	1	result.jpg	10	10	816	1	pic2.jpg	52	10	816	1	result.jpg	10	70	816	1	result.jpg	52	70	816
120616	15:57:42	1	1	4.0.9.0	3	1	picblk	pic3	100	0	0	0	0	0	lbuttondown	0	45	0	1	+	50pct	50pct	0	1	result.jpg	10	10	816	1	result.jpg	52	10	816	1	pic3.jpg	10	70	816	1	result.jpg	52	70	816
120616	15:57:42	1	1	4.0.9.0	3	2	picblk	pic5	100	0	0	0	0	0	lbuttondown	1	45	0	1	+	50pct	50pct	0	1	pic5.jpg	10	10	816	1	result.jpg	52	10	816	1	result.jpg	10	70	816	1	result.jpg	52	70	816
120616	15:57:42	1	1	4.0.9.0	3	3	picblk	pic7	100	0	0	0	0	0	lbuttondown	0	67	0	1	+	50pct	50pct	0	1	result.jpg	10	10	816	1	result.jpg	52	10	816	1	pic7.jpg	10	70	816	1	result.jpg	52	70	816
120616	15:57:42	1	1	4.0.9.0	3	4	picblk	pic13	100	0	0	0	0	0	lbuttondown	1	21	0	1	+	50pct	50pct	0	1	pic13.jpg	10	10	816	1	result.jpg	52	10	816	1	result.jpg	10	70	816	1	result.jpg	52	70	816
120616	15:57:42	1	1	4.0.9.0	3	5	picblk	pic9	100	0	0	0	0	0	lbuttondown	1	43	0	1	+	50pct	50pct	0	1	pic9.jpg	52	10	816	1	result.jpg	52	10	816	1	result.jpg	10	70	816	1	result.jpg	52	70	816
120616	15:57:42	1	1	4.0.9.0	3	6	picblk	pic1	100	0	0	0	0	0	lbuttondown	0	31	0	1	+	50pct	50pct	0	1	pic1.jpg	10	10	816	1	result.jpg	52	10	816	1	result.jpg	10	70	816	1	result.jpg	52	70	816
120616	15:57:42	1	1	4.0.9.0	3	7	picblk	pic2	100	0	0	0	0	0	lbuttondown	0	51	0	1	+	50pct	50pct	0	1	result.jpg	10	10	816	1	pic2.jpg	52	10	816	1	result.jpg	10	70	816	1	result.jpg	52	70	816
120616	15:57:42	1	1	4.0.9.0	3	8	picblk	pic6	100	0	0	0	0	0	lbuttondown	1	55	0	1	+	50pct	50pct	0	1	result.jpg	10	10	816	1	pic6.jpg	52	10	816	1	result.jpg	10	70	816	1	result.jpg	52	70	816
120616	15:57:42	1	1	4.0.9.0	3	9	picblk	pic15	100	0	0	0	0	0	lbuttondown	1	34	0	1	+	50pct	50pct	0	1	result.jpg	10	10	816	1	result.jpg	52	10	816	1	pic15.jpg	10	70	816	1	result.jpg	52	70	816
120616	15:57:42	1	1	4.0.9.0	3	10	picblk	pic12	100	0	0	0	0	0	lbuttondown	0	42	0	1	+	50pct	50pct	0	1	result.jpg	10	10	816	1	result.jpg	52	10	816	1	result.jpg	10	70	816	1	pic12.jpg	52	70	816
120616	15:57:42	1	1	4.0.9.0	3	11	picblk	pic11	100	0	0	0	0	0	lbuttondown	0	59	0	1	+	50pct	50pct	0	1	result.jpg	10	10	816	1	result.jpg	52	10	816	1	pic11.jpg	10	70	816	1	result.jpg	52	70	816
120616	15:57:42	1	1	4.0.9.0	3	12	picblk	pic14	100	0	0	0	0	0	lbuttondown	0	32	0	1	+	50pct	50pct	0	1	result.jpg	10	10	816	1	pic14.jpg	52	10	816	1	result.jpg	10	70	816	1	result.jpg	52	70	816
120616	15:57:42	1	1	4.0.9.0	3	13	picblk	pic10	100	0	0	0	0	0	lbuttondown	1	55	0	1	+	50pct	50pct	0	1	result.jpg	10	10	816	1	pic10.jpg	52	10	816	1	result.jpg	10	70	816	1	result.jpg	52	70	816
120616	15:57:42	1	1	4.0.9.0	3	14	picblk	pic8	100	0	0	0	0	0	lbuttondown	1	58	0	1	+	50pct	50pct	0	1	result.jpg	10	10	816	1	result.jpg	52	10	816	1	result.jpg	10	70	816	1	pic8.jpg	52	70	816
120616	15:57:42	1	1	4.0.9.0	3	15	picblk	pic4	100	0	0	0	0	0	lbuttondown	0	42	0	1	+	50pct	50pct	0	1	result.jpg	10	10	816	1	result.jpg	52	10	816	1	result.jpg	10	70	816	1	pic4.jpg	52	70	816
120616	16:00:30	1	1	4.0.9.0	3	1	picblk	pic2	100	0	0	0	0	0	lbuttondown	1	42	0	1	+	50pct	50pct	0	1	result.jpg	10	10	49	1	pic2.jpg	52	10	49	1	result.jpg	10	70	49	1	result.jpg	52	70	49
120616	16:00:30	1	1	4.0.9.0	3	2	picblk	pic14	100	0	0	0	0	0	lbuttondown	0	31	0	1	+	50pct	50pct	0	1	result.jpg	10	10	49	1	pic14.jpg	52	10	49	1	result.jpg	10	70	49	1	result.jpg	52	70	49
120616	16:00:30	1	1	4.0.9.0	3	3	picblk	pic10	100	0	0	0	0	0	lbuttondown	0	29	0	1	+	50pct	50pct	0	1	result.jpg	10	10	49	1	pic10.jpg	52	10	49	1	result.jpg	10	70	49	1	result.jpg	52	70	49
120616	16:00:30	1	1	4.0.9.0	3	4	picblk	pic13	100	0	0	0	0	0	lbuttondown	0	47	0	1	+	50pct	50pct	0	1	pic13.jpg	10	10	49	1	result.jpg	52	10	49	1	result.jpg	10	70	49	1	result.jpg	52	70	49
120616	16:00:30	1	1	4.0.9.0	3	5	picblk	pic1	100	0	0	0	0	0	lbuttondown	0	53	0	1	+	50pct	50pct	0	1	pic1.jpg	10	10	50	1	result.jpg	52	10	50	1	result.jpg	10	70	50	1	result.jpg	52	70	50
120616	16:00:30	1	1	4.0.9.0	3	6	picblk	pic5	100	0	0	0	0	0	lbuttondown	1	69	0	1	+	50pct	50pct	0	1	pic5.jpg	10	10	49	1	result.jpg	52	10	49	1	result.jpg	10	70	49	1	result.jpg	52	70	49
120616	16:00:30	1	1	4.0.9.0	3	7	picblk	pic15	100	0	0	0	0	0	lbuttondown	1	38	0	1	+	50pct	50pct	1	1	result.jpg	10	10	49	1	result.jpg	52	10	49	1	pic15.jpg	10	70	49	1	result.jpg	52	70	49
120616	16:00:30	1	1	4.0.9.0	3	8	picblk	pic7	100	0	0	0	0	0	lbuttondown	0	38	0	1	+	50pct	50pct	0	1	result.jpg	10	10	49	1	result.jpg	52	10	49	1	pic7.jpg	10	70	49	1	result.jpg	52	70	49
120616	16:00:30	1	1	4.0.9.0	3	9	picblk	pic9	100	0	0	0	0	0	Ctrl+'Q'	0	57	0	1	+	50pct	50pct	0	1	pic9.jpg	52	10	49	1	result.jpg	52	10	49	1	result.jpg	10	70	49	1	result.jpg	52	70	49
120616	16:00:43	1	1	4.0.9.0	3	1	picblk	pic10	100	0	0	0	0	0	lbuttondown	1	2568	0	1	+	50pct	50pct	0	1	result.jpg	10	10	49	1	pic10.jpg	52	10	49	1	result.jpg	10	70	49	1	result.jpg	52	70	49
120616	16:00:43	1	1	4.0.9.0	3	2	picblk	pic1	100	0	0	0	0	0	Ctrl+'Q'	1	6142	0	1	+	50pct	50pct	0	1	pic1.jpg	10	10	50	1	result.jpg	52	10	50	1	result.jpg	10	70	50	1	result.jpg	52	70	50
120616	16:06:02	1	1	4.0.9.0	3	1	picblk	pic8	100	0	0	0	0	0	lbuttondown	0	1523	0	1	+	50pct	50pct	0	1	result.jpg	10	10	49	1	result.jpg	52	10	49	1	result.jpg	10	70	49	1	pic8.jpg	52	70	49
120616	16:06:02	1	1	4.0.9.0	3	2	picblk	pic14	100	0	0	0	0	0	lbuttondown	1	1133	0	1	+	50pct	50pct	0	1	result.jpg	10	10	49	1	pic14.jpg	52	10	49	1	result.jpg	10	70	49	1	result.jpg	52	70	49
120616	16:06:02	1	1	4.0.9.0	3	3	picblk	pic12	100	0	0	0	0	0	lbuttondown	1	851	0	1	+	50pct	50pct	0	1	result.jpg	10	10	49	1	result.jpg	52	10	49	1	result.jpg	10	70	49	1	pic12.jpg	52	70	49
120616	16:06:02	1	1	4.0.9.0	3	4	picblk	pic9	100	0	0	0	0	0	lbuttondown	0	3092	0	1	+	50pct	50pct	230	1	pic9.jpg	52	10	232	1	result.jpg	52	10	232	1	result.jpg	10	70	232	1	result.jpg	52	70	232
120616	16:06:02	1	1	4.0.9.0	3	5	picblk	pic15	100	0	0	0	0	0	lbuttondown	1	1565	0	1	+	50pct	50pct	0	1	result.jpg	10	10	49	1	result.jpg	52	10	49	1	pic15.jpg	10	70	49	1	result.jpg	52	70	49
120616	16:06:02	1	1	4.0.9.0	3	6	picblk	pic5	100	0	0	0	0	0	lbuttondown	0	1636	0	1	+	50pct	50pct	0	1	pic5.jpg	10	10	49	1	result.jpg	52	10	49	1	result.jpg	10	70	49	1	result.jpg	52	70	49
120616	16:06:02	1	1	4.0.9.0	3	7	picblk	pic6	100	0	0	0	0	0	lbuttondown	1	1254	0	1	+	50pct	50pct	0	1	result.jpg	10	10	49	1	pic6.jpg	52	10	49	1	result.jpg	10	70	49	1	result.jpg	52	70	49
120616	16:06:02	1	1	4.0.9.0	3	8	picblk	pic13	100	0	0	0	0	0	lbuttondown	1	866	0	1	+	50pct	50pct	0	1	pic13.jpg	10	10	50	1	result.jpg	52	10	50	1	result.jpg	10	70	50	1	result.jpg	52	70	50
120616	16:06:02	1	1	4.0.9.0	3	9	picblk	pic10	100	0	0	0	0	0	lbuttondown	1	1008	0	1	+	50pct	50pct	0	1	result.jpg	10	10	49	1	pic10.jpg	52	10	49	1	result.jpg	10	70	49	1	result.jpg	52	70	49
120616	16:06:02	1	1	4.0.9.0	3	10	picblk	pic11	100	0	0	0	0	0	lbuttondown	1	1657	0	1	+	50pct	50pct	0	1	result.jpg	10	10	49	1	result.jpg	52	10	49	1	pic11.jpg	10	70	49	1	result.jpg	52	70	49
120616	16:06:02	1	1	4.0.9.0	3	11	picblk	pic1	100	0	0	0	0	0	lbuttondown	0	1110	0	1	+	50pct	50pct	0	1	pic1.jpg	10	10	49	1	result.jpg	52	10	49	1	result.jpg	10	70	49	1	result.jpg	52	70	49
120616	16:06:02	1	1	4.0.9.0	3	12	picblk	pic7	100	0	0	0	0	0	lbuttondown	0	767	0	1	+	50pct	50pct	0	1	result.jpg	10	10	49	1	result.jpg	52	10	49	1	pic7.jpg	10	70	49	1	result.jpg	52	70	49
120616	16:06:02	1	1	4.0.9.0	3	13	picblk	pic3	100	0	0	0	0	0	lbuttondown	0	392	0	1	+	50pct	50pct	0	1	result.jpg	10	10	49	1	result.jpg	52	10	49	1	pic3.jpg	10	70	49	1	result.jpg	52	70	49
120616	16:06:02	1	1	4.0.9.0	3	14	picblk	pic2	100	0	0	0	0	0	lbuttondown	0	388	0	1	+	50pct	50pct	0	1	result.jpg	10	10	49	1	pic2.jpg	52	10	49	1	result.jpg	10	70	49	1	result.jpg	52	70	49
120616	16:06:02	1	1	4.0.9.0	3	15	picblk	pic4	100	0	0	0	0	0	lbuttondown	0	21	0	1	+	50pct	50pct	0	1	result.jpg	10	10	49	1	result.jpg	52	10	49	1	result.jpg	10	70	49	1	pic4.jpg	52	70	49
120616	16:07:49	1	1	4.0.9.0	2	1	picblk	pic15	100	0	0	0	0	0	lbuttondown	1	2770	0	1	+	50pct	50pct	0	1	result.jpg	10	10	49	1	result.jpg	52	10	49	1	pic15.jpg	10	70	49	1	result.jpg	52	70	49
120616	16:07:49	1	1	4.0.9.0	2	2	picblk	pic2	100	0	0	0	0	0	lbuttondown	1	1190	0	1	+	50pct	50pct	0	1	result.jpg	10	10	49	1	pic2.jpg	52	10	49	1	result.jpg	10	70	49	1	result.jpg	52	70	49
120616	16:07:49	1	1	4.0.9.0	2	3	picblk	pic11	100	0	0	0	0	0	lbuttondown	1	806	0	1	+	50pct	50pct	0	1	result.jpg	10	10	49	1	result.jpg	52	10	49	1	pic11.jpg	10	70	49	1	result.jpg	52	70	49
120616	16:07:49	1	1	4.0.9.0	2	4	picblk	pic5	100	0	0	0	0	0	lbuttondown	0	2531	0	1	+	50pct	50pct	0	1	pic5.jpg	10	10	49	1	result.jpg	52	10	49	1	result.jpg	10	70	49	1	result.jpg	52	70	49
120616	16:07:49	1	1	4.0.9.0	2	5	picblk	pic7	100	0	0	0	0	0	lbuttondown	0	596	0	1	+	50pct	50pct	0	1	result.jpg	10	10	49	1	result.jpg	52	10	49	1	pic7.jpg	10	70	49	1	result.jpg	52	70	49
120616	16:07:49	1	1	4.0.9.0	2	6	picblk	pic13	100	0	0	0	0	0	lbuttondown	0	382	0	1	+	50pct	50pct	0	1	pic13.jpg	10	10	49	1	result.jpg	52	10	49	1	result.jpg	10	70	49	1	result.jpg	52	70	49
120616	16:07:49	1	1	4.0.9.0	2	7	picblk	pic3	100	0	0	0	0	0	lbuttondown	0	550	0	1	+	50pct	50pct	0	1	result.jpg	10	10	49	1	result.jpg	52	10	49	1	pic3.jpg	10	70	49	1	result.jpg	52	70	49
120616	16:07:49	1	1	4.0.9.0	2	8	picblk	pic6	100	0	0	0	0	0	lbuttondown	1	353	0	1	+	50pct	50pct	0	1	result.jpg	10	10	49	1	pic6.jpg	52	10	49	1	result.jpg	10	70	49	1	result.jpg	52	70	49
120616	16:07:49	1	1	4.0.9.0	2	9	picblk	pic9	100	0	0	0	0	0	lbuttondown	1	345	0	1	+	50pct	50pct	0	1	pic9.jpg	52	10	49	1	result.jpg	52	10	49	1	result.jpg	10	70	49	1	result.jpg	52	70	49
120616	16:07:49	1	1	4.0.9.0	2	10	picblk	pic1	100	0	0	0	0	0	Ctrl+'Q'	1	917	0	1	+	50pct	50pct	0	1	pic1.jpg	10	10	49	1	result.jpg	52	10	49	1	result.jpg	10	70	49	1	result.jpg	52	70	49
120616	16:44:42	1	1	4.0.9.0	2	1	picblk	pic12	100	0	0	0	0	0	Ctrl+'Q'	1	1886	0	1	+	50pct	50pct	0	1	result.jpg	10	10	49	1	result.jpg	52	10	49	1	result.jpg	10	70	49	1	pic12.jpg	52	70	49
120616	16:49:46	1	1	4.0.9.0	2	1	picblk	pic14	100	0	0	0	0	0	lbuttondown	1	1962	0	1	+	50pct	50pct	0	1	result.jpg	10	10	49	1	pic14.jpg	52	10	49	1	result.jpg	10	70	49	1	result.jpg	52	70	49
120616	16:49:46	1	1	4.0.9.0	2	2	picblk	pic10	100	0	0	0	0	0	lbuttondown	1	811	0	1	+	50pct	50pct	0	1	result.jpg	10	10	49	1	pic10.jpg	52	10	49	1	result.jpg	10	70	49	1	result.jpg	52	70	49
120616	16:49:46	1	1	4.0.9.0	2	3	picblk	pic5	100	0	0	0	0	0	Ctrl+'Q'	1	2870	0	1	+	50pct	50pct	0	1	pic5.jpg	10	10	50	1	result.jpg	52	10	50	1	result.jpg	10	70	50	1	result.jpg	52	70	50
120616	16:49:58	1	1	4.0.9.0	2	1	picblk	pic11	100	0	0	0	0	0	lbuttondown	1	39	0	1	+	50pct	50pct	0	1	result.jpg	10	10	49	1	result.jpg	52	10	49	1	pic11.jpg	10	70	49	1	result.jpg	52	70	49
120616	16:49:58	1	1	4.0.9.0	2	2	picblk	pic1	100	0	0	0	0	0	lbuttondown	0	37	0	1	+	50pct	50pct	1	1	pic1.jpg	10	10	49	1	result.jpg	52	10	49	1	result.jpg	10	70	49	1	result.jpg	52	70	49
120616	16:49:58	1	1	4.0.9.0	2	3	picblk	pic8	100	0	0	0	0	0	lbuttondown	1	46	0	1	+	50pct	50pct	0	1	result.jpg	10	10	49	1	result.jpg	52	10	49	1	result.jpg	10	70	49	1	pic8.jpg	52	70	49
120616	16:49:58	1	1	4.0.9.0	2	4	picblk	pic7	100	0	0	0	0	0	lbuttondown	1	45	0	1	+	50pct	50pct	0	1	result.jpg	10	10	49	1	result.jpg	52	10	49	1	pic7.jpg	10	70	49	1	result.jpg	52	70	49
120616	16:49:58	1	1	4.0.9.0	2	5	picblk	pic10	100	0	0	0	0	0	lbuttondown	1	61	0	1	+	50pct	50pct	0	1	result.jpg	10	10	49	1	pic10.jpg	52	10	49	1	result.jpg	10	70	49	1	result.jpg	52	70	49
120616	16:49:58	1	1	4.0.9.0	2	6	picblk	pic15	100	0	0	0	0	0	lbuttondown	1	46	0	1	+	50pct	50pct	0	1	result.jpg	10	10	49	1	result.jpg	52	10	49	1	pic15.jpg	10	70	49	1	result.jpg	52	70	49
120616	16:49:58	1	1	4.0.9.0	2	7	picblk	pic3	100	0	0	0	0	0	lbuttondown	0	47	0	1	+	50pct	50pct	0	1	result.jpg	10	10	49	1	result.jpg	52	10	49	1	pic3.jpg	10	70	49	1	result.jpg	52	70	49
120616	16:49:58	1	1	4.0.9.0	2	8	picblk	pic13	100	0	0	0	0	0	lbuttondown	1	30	0	1	+	50pct	50pct	0	1	pic13.jpg	10	10	49	1	result.jpg	52	10	49	1	result.jpg	10	70	49	1	result.jpg	52	70	49
120616	16:49:58	1	1	4.0.9.0	2	9	picblk	pic9	100	0	0	0	0	0	lbuttondown	0	36	0	1	+	50pct	50pct	0	1	pic9.jpg	10	10	49	1	result.jpg	52	10	49	1	result.jpg	10	70	49	1	result.jpg	52	70	49
120616	16:49:58	1	1	4.0.9.0	2	10	picblk	pic2	100	0	0	0	0	0	lbuttondown	1	37	0	1	+	50pct	50pct	0	1	result.jpg	10	10	49	1	pic2.jpg	52	10	49	1	result.jpg	10	70	49	1	result.jpg	52	70	49
120616	16:49:58	1	1	4.0.9.0	2	11	picblk	pic6	100	0	0	0	0	0	lbuttondown	0	37	0	1	+	50pct	50pct	0	1	result.jpg	10	10	49	1	pic6.jpg	52	10	49	1	result.jpg	10	70	49	1	result.jpg	52	70	49
120616	16:49:58	1	1	4.0.9.0	2	12	picblk	pic5	100	0	0	0	0	0	lbuttondown	0	26	0	1	+	50pct	50pct	0	1	pic5.jpg	10	10	49	1	result.jpg	52	10	49	1	result.jpg	10	70	49	1	result.jpg	52	70	49
120616	16:49:58	1	1	4.0.9.0	2	13	picblk	pic12	100	0	0	0	0	0	lbuttondown	1	27	0	1	+	50pct	50pct	0	1	result.jpg	10	10	49	1	result.jpg	52	10	49	1	result.jpg	10	70	49	1	pic12.jpg	52	70	49
120616	16:49:58	1	1	4.0.9.0	2	14	picblk	pic4	100	0	0	0	0	0	lbuttondown	1	40	0	1	+	50pct	50pct	37	1	result.jpg	10	10	50	1	result.jpg	52	10	50	1	result.jpg	10	70	50	1	pic4.jpg	52	70	50
120616	16:49:58	1	1	4.0.9.0	2	15	picblk	pic14	100	0	0	0	0	0	lbuttondown	0	41	0	1	+	50pct	50pct	0	1	result.jpg	10	10	49	1	pic14.jpg	52	10	49	1	result.jpg	10	70	49	1	result.jpg	52	70	49
120616	16:50:17	1	1	4.0.9.0	2	1	picblk	pic8	100	0	0	0	0	0	lbuttondown	0	617	0	1	+	50pct	50pct	0	1	result.jpg	10	10	49	1	result.jpg	52	10	49	1	result.jpg	10	70	49	1	pic8.jpg	52	70	49
120616	16:50:17	1	1	4.0.9.0	2	2	picblk	pic2	100	0	0	0	0	0	lbuttondown	0	324	0	1	+	50pct	50pct	0	1	result.jpg	10	10	50	1	pic2.jpg	52	10	50	1	result.jpg	10	70	50	1	result.jpg	52	70	50
120616	16:50:17	1	1	4.0.9.0	2	3	picblk	pic13	100	0	0	0	0	0	lbuttondblclk	1	35	0	1	+	50pct	50pct	1	1	pic13.jpg	10	10	49	1	result.jpg	52	10	49	1	result.jpg	10	70	49	1	result.jpg	52	70	49
120616	16:50:17	1	1	4.0.9.0	2	4	picblk	pic1	100	0	0	0	0	0	lbuttondblclk	1	60	0	1	+	50pct	50pct	12	1	pic1.jpg	10	10	50	1	result.jpg	52	10	50	1	result.jpg	10	70	50	1	result.jpg	52	70	50
120616	16:50:17	1	1	4.0.9.0	2	5	picblk	pic7	100	0	0	0	0	0	lbuttondown	0	192	0	1	+	50pct	50pct	0	1	result.jpg	10	10	49	1	result.jpg	52	10	49	1	pic7.jpg	10	70	49	1	result.jpg	52	70	49
120616	16:50:17	1	1	4.0.9.0	2	6	picblk	pic10	100	0	0	0	0	0	lbuttondown	0	386	0	1	+	50pct	50pct	17	1	result.jpg	10	10	49	1	pic10.jpg	52	10	49	1	result.jpg	10	70	49	1	result.jpg	52	70	49
120616	16:50:17	1	1	4.0.9.0	2	7	picblk	pic9	100	0	0	0	0	0	lbuttondblclk	1	251	0	1	+	50pct	50pct	0	1	pic9.jpg	10	10	49	1	result.jpg	52	10	49	1	result.jpg	10	70	49	1	result.jpg	52	70	49
120616	16:50:17	1	1	4.0.9.0	2	8	picblk	pic4	100	0	0	0	0	0	lbuttondown	0	186	0	1	+	50pct	50pct	0	1	result.jpg	10	10	49	1	result.jpg	52	10	49	1	result.jpg	10	70	49	1	pic4.jpg	52	70	49
120616	16:50:17	1	1	4.0.9.0	2	9	picblk	pic6	100	0	0	0	0	0	lbuttondown	0	637	0	1	+	50pct	50pct	0	1	result.jpg	10	10	49	1	pic6.jpg	52	10	49	1	result.jpg	10	70	49	1	result.jpg	52	70	49
120616	16:50:17	1	1	4.0.9.0	2	10	picblk	pic15	100	0	0	0	0	0	lbuttondown	0	614	0	1	+	50pct	50pct	1	1	result.jpg	10	10	50	1	result.jpg	52	10	50	1	pic15.jpg	10	70	50	1	result.jpg	52	70	50
120616	16:50:17	1	1	4.0.9.0	2	11	picblk	pic12	100	0	0	0	0	0	lbuttondown	0	88	0	1	+	50pct	50pct	0	1	result.jpg	10	10	49	1	result.jpg	52	10	49	1	result.jpg	10	70	49	1	pic12.jpg	52	70	49
120616	16:50:17	1	1	4.0.9.0	2	12	picblk	pic14	100	0	0	0	0	0	lbuttondown	0	257	0	1	+	50pct	50pct	320	1	result.jpg	10	10	322	1	pic14.jpg	52	10	322	1	result.jpg	10	70	322	1	result.jpg	52	70	322
120616	16:50:17	1	1	4.0.9.0	2	13	picblk	pic11	100	0	0	0	0	0	lbuttondown	0	416	0	1	+	50pct	50pct	0	1	result.jpg	10	10	49	1	result.jpg	52	10	49	1	pic11.jpg	10	70	49	1	result.jpg	52	70	49
120616	16:50:17	1	1	4.0.9.0	2	14	picblk	pic3	100	0	0	0	0	0	lbuttondown	0	233	0	1	+	50pct	50pct	0	1	result.jpg	10	10	51	1	result.jpg	52	10	51	1	pic3.jpg	10	70	51	1	result.jpg	52	70	51
120616	16:50:17	1	1	4.0.9.0	2	15	picblk	pic5	100	0	0	0	0	0	lbuttondown	1	434	0	1	+	50pct	50pct	8	1	pic5.jpg	10	10	49	1	result.jpg	52	10	49	1	result.jpg	10	70	49	1	result.jpg	52	70	49
