date	time	group	subject	build	blocknum	trialnum	blockcode	trialcode	pretrialpause	posttrialpause	windowcenter	trialduration	trialtimeout	blocktimeout	response	correct	latency	inwindow	stimulusnumber1	stimulusitem1	stimulusvpos1	stimulushpos1	stimulusonset1	stimulusnumber2	stimulusitem2	stimulusvpos2	stimulushpos2	stimulusonset2	stimulusnumber3	stimulusitem3	stimulusvpos3	stimulushpos3	stimulusonset3	stimulusnumber4	stimulusitem4	stimulusvpos4	stimulushpos4	stimulusonset4
112916	21:07:39	1	1	4.0.6.0	1	1		trial	0	0	0	0	0	0	TPics	1	24	0	10	OPic/Opic3.jpg	50pct	80	-6	10	OPic/Opic3.jpg	50pct	40	-6	10	OPic/Opic3.jpg	50pct	60	-6	10	TPic/Tpic3.jpg	50pct	20	-6
112916	21:07:53	1	1	4.0.6.0	1	1		trial	0	0	0	0	0	0	OPics3	1	2344	0	2	OPic/Opic1.jpg	50pct	20	-8	2	OPic/Opic1.jpg	50pct	20	-8	2	OPic/Opic1.jpg	50pct	80	-8	2	TPic/Tpic1.jpg	50pct	80	-8
112916	21:08:35	1	1	4.0.6.0	1	1		trial	0	0	0	0	0	0	OPics1	1	5791	0	10	OPic/Opic3.jpg	50pct	60	-6	10	OPic/Opic3.jpg	50pct	40	-6	10	OPic/Opic3.jpg	50pct	80	-6	10	TPic/Tpic3.jpg	50pct	40	-6
112916	21:14:09	1	1	4.0.6.0	1	1		trial	0	0	0	0	0	0	OPics1	1	3324	0	11	OPic/Opic4.jpg	50pct	0	-7	11	OPic/Opic4.jpg	50pct	0	-7	11	OPic/Opic4.jpg	50pct	120	-7	11	TPic/Tpic4.jpg	50pct	0	-7
113016	15:41:58	1	1	4.0.6.0	1	1		trial	0	0	0	0	0	0	TPics	1	38	0	1	OPic/pic0.jpg	50pct	60	-7	1	OPic/pic0.jpg	50pct	60	-7	1	OPic/pic0.jpg	50pct	60	-7	1	TPic/Tpic1.jpg	50pct	40	-7
113016	15:42:02	1	1	4.0.6.0	1	1		trial	0	0	0	0	0	0	OPics2	1	9674	0	8	OPic/pic2.jpg	50pct	80	-7	8	OPic/pic2.jpg	50pct	60	-7	8	OPic/pic2.jpg	50pct	20	-7	8	TPic/Tpic3.jpg	50pct	60	-7
113016	15:42:57	1	1	4.0.6.0	1	1		trial	0	0	0	0	0	0	OPics2	1	3699	0	14	OPic/pic8.jpg	50pct	80	-6	14	OPic/pic8.jpg	50pct	40	-6	14	OPic/pic8.jpg	50pct	40	-6	14	TPic/Tpic8.jpg	50pct	40	-6
113016	15:43:12	1	1	4.0.6.0	1	1		trial	0	0	0	0	0	0	TPics	1	4480	0	12	OPic/pic6.jpg	50pct	20	-6	12	OPic/pic6.jpg	50pct	80	-6	12	OPic/pic6.jpg	50pct	80	-6	12	TPic/Tpic6.jpg	50pct	60	-6
113016	15:49:09	1	1	4.0.6.0	1	1		trial	0	0	0	0	0	0	OPics1	1	2180	0	7	OPic/pic14.jpg	50pct	20	-5	7	OPic/pic14.jpg	50pct	20	-5	7	OPic/pic14.jpg	50pct	20	-5	7	TPic/Tpic14.jpg	50pct	20	-5
113016	17:00:26	1	1	4.0.6.0	1	1		trial	0	0	0	0	0	0	TPics	1	4324	0	5	OPic/Opic14.jpg	50pct	20	-6	5	OPic/Opic14.jpg	50pct	40	-6	5	OPic/Opic14.jpg	50pct	20	-6	5	TPic/Tpic14.jpg	50pct	80	-6
113016	17:03:55	1	1	4.0.6.0	1	1		trial	0	0	0	0	0	0	OPics3	1	8229	0	6	OPic/Opic15.jpg	50pct	0	-7	6	OPic/Opic15.jpg	50pct	0	-7	6	OPic/Opic15.jpg	50pct	100	-7	6	TPic/Tpic15.jpg	50pct	100	-7
113016	17:05:06	1	1	4.0.6.0	1	1		trial	0	0	0	0	0	0	OPics3	1	7208	0	4	OPic/Opic13.jpg	50pct	0	-7	4	OPic/Opic13.jpg	50pct	0	-7	4	OPic/Opic13.jpg	50pct	100	-7	4	TPic/Tpic13.jpg	50pct	100	-7
113016	17:09:33	1	1	4.0.6.0	1	1		trial	0	0	0	0	0	0	OPics1	0	2627	0	5	OPic/Opic14.jpg	50pct	0	-6	5	OPic/Opic14.jpg	50pct	0	-6	5	OPic/Opic14.jpg	50pct	100	-6	5	TPic/Tpic14.jpg	50pct	100	-6
113016	17:10:17	1	1	4.0.6.0	1	1		trial	0	0	0	0	0	0	OPics1	0	63473	0	4	OPic/Opic13.jpg	50pct	20	-4	4	OPic/Opic13.jpg	50pct	20	-4	4	OPic/Opic13.jpg	50pct	60	-4	4	TPic/Tpic13.jpg	50pct	60	-4
113016	17:11:52	1	1	4.0.6.0	1	1		trial	0	0	0	0	0	0	OPics1	0	11336	0	6	OPic/Opic15.jpg	20	20	-5	6	OPic/Opic15.jpg	60	20	-5	6	OPic/Opic15.jpg	20	60	-5	6	TPic/Tpic15.jpg	60	60	-5
113016	17:12:34	1	1	4.0.6.0	1	1		trial	0	0	0	0	0	0	OPics1	0	4746	0	4	OPic/Opic13.jpg	20	20	-5	4	OPic/Opic13.jpg	60	30	-5	4	OPic/Opic13.jpg	30	60	-5	4	TPic/Tpic13.jpg	60	60	-5
113016	17:12:53	1	1	4.0.6.0	1	1		trial	0	0	0	0	0	0	OPics2	0	11533	0	11	OPic/Opic6.jpg	20	20	-2	11	OPic/Opic6.jpg	60	30	-2	11	OPic/Opic6.jpg	30	60	-2	11	TPic/Tpic6.jpg	60	60	-2
113016	17:15:21	1	1	4.0.6.0	1	1		trial	0	0	0	0	0	0	TPics	1	38884	0	11	OPic/Opic6.jpg	50pct	50pct	-6	11	OPic/Opic6.jpg	50pct	50pct	-6	11	OPic/Opic6.jpg	50pct	50pct	-6	11	TPic/Tpic6.jpg	50pct	50pct	-6
113016	20:25:15	1	1	4.0.6.0	1	1		1	0	0	0	0	0	0	TPics	1	6578	0	1	OPic/Opic1.jpg	50pct	50pct	-6	1	OPic/Opic1.jpg	50pct	50pct	-6	1	OPic/Opic1.jpg	50pct	50pct	-6	1	TPic/Tpic1.jpg	50pct	50pct	-6
113016	20:32:51	1	1	4.0.6.0	1	1		1	0	0	0	0	0	0	TPics1	1	2960	0	1	OPic/Opic1.jpg	50pct	50pct	-6	1	OPic/Opic1.jpg	50pct	50pct	-6	1	OPic/Opic1.jpg	50pct	50pct	-6	1	TPic/Tpic1.jpg	50pct	50pct	-6
113016	20:33:24	1	1	4.0.6.0	1	1		1	0	0	0	0	0	0	OPicsa1	0	4021	0	1	OPic/Opic1.jpg	50pct	50pct	-5	1	OPic/Opic1.jpg	50pct	50pct	-5	1	OPic/Opic1.jpg	50pct	50pct	-5	1	TPic/Tpic1.jpg	50pct	50pct	-5
113016	20:53:48	1	1	4.0.6.0	1	1		1	0	0	0	0	0	0	TPics1	1	891	0	1	OPic/Opic1.jpg	50pct	50pct	-7	1	OPic/Opic1.jpg	50pct	50pct	-7	1	OPic/Opic1.jpg	50pct	50pct	-7	1	TPic/Tpic1.jpg	50pct	50pct	-7
113016	20:53:48	1	1	4.0.6.0	1	2		10	0	0	0	0	0	0	OPicsc10	0	571	0	10	OPic/Opic10.jpg	50pct	50pct	-15	1	OPic/Opic1.jpg	50pct	50pct	-15	1	OPic/Opic1.jpg	50pct	50pct	-15	1	TPic/Tpic1.jpg	50pct	50pct	-15
113016	20:53:48	1	1	4.0.6.0	1	3		11	0	0	0	0	0	0	OPicsb11	0	627	0	11	OPic/Opic11.jpg	50pct	50pct	-16	1	OPic/Opic1.jpg	50pct	50pct	-16	1	OPic/Opic1.jpg	50pct	50pct	-16	1	TPic/Tpic1.jpg	50pct	50pct	-16
113016	20:53:48	1	1	4.0.6.0	1	4		12	0	0	0	0	0	0	OPicsc12	0	1116	0	12	OPic/Opic12.jpg	50pct	50pct	-16	1	OPic/Opic1.jpg	50pct	50pct	-16	1	OPic/Opic1.jpg	50pct	50pct	-16	1	TPic/Tpic1.jpg	50pct	50pct	-16
113016	20:53:48	1	1	4.0.6.0	1	5		13	0	0	0	0	0	0	OPicsc13	0	879	0	13	OPic/Opic13.jpg	50pct	50pct	-16	1	OPic/Opic1.jpg	50pct	50pct	-16	1	OPic/Opic1.jpg	50pct	50pct	-16	1	TPic/Tpic1.jpg	50pct	50pct	-16
113016	20:53:48	1	1	4.0.6.0	1	6		14	0	0	0	0	0	0	TPics14	1	2789	0	14	OPic/Opic14.jpg	50pct	50pct	-15	1	OPic/Opic1.jpg	50pct	50pct	-15	1	OPic/Opic1.jpg	50pct	50pct	-15	1	TPic/Tpic1.jpg	50pct	50pct	-15
113016	20:53:48	1	1	4.0.6.0	1	7		15	0	0	0	0	0	0	OPicsc15	0	690	0	15	OPic/Opic15.jpg	50pct	50pct	-16	1	OPic/Opic1.jpg	50pct	50pct	-16	1	OPic/Opic1.jpg	50pct	50pct	-16	1	TPic/Tpic1.jpg	50pct	50pct	-16
113016	20:53:48	1	1	4.0.6.0	1	8		16	0	0	0	0	0	0	OPicsc16	0	745	0	16	OPic/Opic16.jpg	50pct	50pct	-15	1	OPic/Opic1.jpg	50pct	50pct	-15	1	OPic/Opic1.jpg	50pct	50pct	-15	1	TPic/Tpic1.jpg	50pct	50pct	-15
113016	20:53:48	1	1	4.0.6.0	1	9		2	0	0	0	0	0	0	TPics2	1	677	0	2	OPic/Opic2.jpg	50pct	50pct	-16	1	OPic/Opic1.jpg	50pct	50pct	-16	1	OPic/Opic1.jpg	50pct	50pct	-16	1	TPic/Tpic1.jpg	50pct	50pct	-16
113016	20:53:48	1	1	4.0.6.0	1	10		3	0	0	0	0	0	0	OPicsc3	0	999	0	3	OPic/Opic3.jpg	50pct	50pct	-15	1	OPic/Opic1.jpg	50pct	50pct	-15	1	OPic/Opic1.jpg	50pct	50pct	-15	1	TPic/Tpic1.jpg	50pct	50pct	-15
113016	20:53:48	1	1	4.0.6.0	1	11		4	0	0	0	0	0	0	OPicsc4	0	839	0	4	OPic/Opic4.jpg	50pct	50pct	-16	1	OPic/Opic1.jpg	50pct	50pct	-16	1	OPic/Opic1.jpg	50pct	50pct	-16	1	TPic/Tpic1.jpg	50pct	50pct	-16
113016	20:53:48	1	1	4.0.6.0	1	12		5	0	0	0	0	0	0	OPicsc5	0	925	0	5	OPic/Opic5.jpg	50pct	50pct	-16	1	OPic/Opic1.jpg	50pct	50pct	-16	1	OPic/Opic1.jpg	50pct	50pct	-16	1	TPic/Tpic1.jpg	50pct	50pct	-16
113016	20:53:48	1	1	4.0.6.0	1	13		6	0	0	0	0	0	0	TPics6	1	983	0	6	OPic/Opic6.jpg	50pct	50pct	-16	1	OPic/Opic1.jpg	50pct	50pct	-16	1	OPic/Opic1.jpg	50pct	50pct	-16	1	TPic/Tpic1.jpg	50pct	50pct	-16
113016	20:53:48	1	1	4.0.6.0	1	14		7	0	0	0	0	0	0	OPicsc7	0	647	0	7	OPic/Opic7.jpg	50pct	50pct	-16	1	OPic/Opic1.jpg	50pct	50pct	-16	1	OPic/Opic1.jpg	50pct	50pct	-16	1	TPic/Tpic1.jpg	50pct	50pct	-16
113016	20:53:48	1	1	4.0.6.0	1	15		8	0	0	0	0	0	0	OPicsc8	0	957	0	8	OPic/Opic8.jpg	50pct	50pct	-15	1	OPic/Opic1.jpg	50pct	50pct	-15	1	OPic/Opic1.jpg	50pct	50pct	-15	1	TPic/Tpic1.jpg	50pct	50pct	-15
113016	20:53:48	1	1	4.0.6.0	1	16		9	0	0	0	0	0	0	OPicsc9	0	846	0	9	OPic/Opic9.jpg	50pct	50pct	-16	1	OPic/Opic1.jpg	50pct	50pct	-16	1	OPic/Opic1.jpg	50pct	50pct	-16	1	TPic/Tpic1.jpg	50pct	50pct	-16
113016	20:54:26	1	1	4.0.6.0	1	1		1	0	0	0	0	0	0	TPics1	1	1844	0	1	OPic/Opic1.jpg	50pct	50pct	-6	1	OPic/Opic1.jpg	50pct	50pct	-6	1	OPic/Opic1.jpg	50pct	50pct	-6	1	TPic/Tpic1.jpg	50pct	50pct	-6
113016	20:54:26	1	1	4.0.6.0	1	2		10	0	0	0	0	0	0	TPics10	1	6548	0	10	OPic/Opic10.jpg	50pct	50pct	-16	1	OPic/Opic1.jpg	50pct	50pct	-16	1	OPic/Opic1.jpg	50pct	50pct	-16	1	TPic/Tpic1.jpg	50pct	50pct	-16
113016	20:54:26	1	1	4.0.6.0	1	3		11	0	0	0	0	0	0	OPicsb11	0	875	0	11	OPic/Opic11.jpg	50pct	50pct	-15	1	OPic/Opic1.jpg	50pct	50pct	-15	1	OPic/Opic1.jpg	50pct	50pct	-15	1	TPic/Tpic1.jpg	50pct	50pct	-15
113016	20:54:26	1	1	4.0.6.0	1	4		12	0	0	0	0	0	0	OPicsc12	0	971	0	12	OPic/Opic12.jpg	50pct	50pct	-16	1	OPic/Opic1.jpg	50pct	50pct	-16	1	OPic/Opic1.jpg	50pct	50pct	-16	1	TPic/Tpic1.jpg	50pct	50pct	-16
113016	20:54:26	1	1	4.0.6.0	1	5		13	0	0	0	0	0	0	OPicsb13	0	678	0	13	OPic/Opic13.jpg	50pct	50pct	-16	1	OPic/Opic1.jpg	50pct	50pct	-16	1	OPic/Opic1.jpg	50pct	50pct	-16	1	TPic/Tpic1.jpg	50pct	50pct	-16
113016	20:54:26	1	1	4.0.6.0	1	6		14	0	0	0	0	0	0	OPicsa14	0	750	0	14	OPic/Opic14.jpg	50pct	50pct	-16	1	OPic/Opic1.jpg	50pct	50pct	-16	1	OPic/Opic1.jpg	50pct	50pct	-16	1	TPic/Tpic1.jpg	50pct	50pct	-16
113016	20:54:26	1	1	4.0.6.0	1	7		15	0	0	0	0	0	0	OPicsa15	0	751	0	15	OPic/Opic15.jpg	50pct	50pct	-16	1	OPic/Opic1.jpg	50pct	50pct	-16	1	OPic/Opic1.jpg	50pct	50pct	-16	1	TPic/Tpic1.jpg	50pct	50pct	-16
113016	20:54:26	1	1	4.0.6.0	1	8		16	0	0	0	0	0	0	OPicsa16	0	584	0	16	OPic/Opic16.jpg	50pct	50pct	-16	1	OPic/Opic1.jpg	50pct	50pct	-16	1	OPic/Opic1.jpg	50pct	50pct	-16	1	TPic/Tpic1.jpg	50pct	50pct	-16
113016	20:54:26	1	1	4.0.6.0	1	9		2	0	0	0	0	0	0	OPicsb2	0	515	0	2	OPic/Opic2.jpg	50pct	50pct	-15	1	OPic/Opic1.jpg	50pct	50pct	-15	1	OPic/Opic1.jpg	50pct	50pct	-15	1	TPic/Tpic1.jpg	50pct	50pct	-15
113016	20:54:26	1	1	4.0.6.0	1	10		3	0	0	0	0	0	0	OPicsc3	0	558	0	3	OPic/Opic3.jpg	50pct	50pct	-16	1	OPic/Opic1.jpg	50pct	50pct	-16	1	OPic/Opic1.jpg	50pct	50pct	-16	1	TPic/Tpic1.jpg	50pct	50pct	-16
113016	20:54:26	1	1	4.0.6.0	1	11		4	0	0	0	0	0	0	OPicsa4	0	584	0	4	OPic/Opic4.jpg	50pct	50pct	-16	1	OPic/Opic1.jpg	50pct	50pct	-16	1	OPic/Opic1.jpg	50pct	50pct	-16	1	TPic/Tpic1.jpg	50pct	50pct	-16
113016	20:54:26	1	1	4.0.6.0	1	12		5	0	0	0	0	0	0	OPicsa5	0	632	0	5	OPic/Opic5.jpg	50pct	50pct	-16	1	OPic/Opic1.jpg	50pct	50pct	-16	1	OPic/Opic1.jpg	50pct	50pct	-16	1	TPic/Tpic1.jpg	50pct	50pct	-16
113016	20:54:26	1	1	4.0.6.0	1	13		6	0	0	0	0	0	0	TPics6	1	647	0	6	OPic/Opic6.jpg	50pct	50pct	-16	1	OPic/Opic1.jpg	50pct	50pct	-16	1	OPic/Opic1.jpg	50pct	50pct	-16	1	TPic/Tpic1.jpg	50pct	50pct	-16
113016	20:54:26	1	1	4.0.6.0	1	14		7	0	0	0	0	0	0	OPicsb7	0	606	0	7	OPic/Opic7.jpg	50pct	50pct	-16	1	OPic/Opic1.jpg	50pct	50pct	-16	1	OPic/Opic1.jpg	50pct	50pct	-16	1	TPic/Tpic1.jpg	50pct	50pct	-16
113016	20:54:26	1	1	4.0.6.0	1	15		8	0	0	0	0	0	0	OPicsb8	0	730	0	8	OPic/Opic8.jpg	50pct	50pct	-16	1	OPic/Opic1.jpg	50pct	50pct	-16	1	OPic/Opic1.jpg	50pct	50pct	-16	1	TPic/Tpic1.jpg	50pct	50pct	-16
113016	20:54:26	1	1	4.0.6.0	1	16		9	0	0	0	0	0	0	OPicsc9	0	596	0	9	OPic/Opic9.jpg	50pct	50pct	-16	1	OPic/Opic1.jpg	50pct	50pct	-16	1	OPic/Opic1.jpg	50pct	50pct	-16	1	TPic/Tpic1.jpg	50pct	50pct	-16
113016	20:56:00	1	1	4.0.6.0	1	1		1	0	0	0	0	0	0	OPicsc1	0	815	0	1	OPic/Opic1.jpg	50pct	50pct	-5	1	OPic/Opic1.jpg	50pct	50pct	-5	1	OPic/Opic1.jpg	50pct	50pct	-5	1	TPic/Tpic1.jpg	50pct	50pct	-5
113016	20:56:00	1	1	4.0.6.0	1	2		10	0	0	0	0	0	0	OPicsb10	0	1172	0	10	OPic/Opic10.jpg	50pct	50pct	-16	1	OPic/Opic1.jpg	50pct	50pct	-16	1	OPic/Opic1.jpg	50pct	50pct	-16	1	TPic/Tpic1.jpg	50pct	50pct	-16
113016	20:56:00	1	1	4.0.6.0	1	3		11	0	0	0	0	0	0	OPicsb11	0	1010	0	11	OPic/Opic11.jpg	50pct	50pct	-16	1	OPic/Opic1.jpg	50pct	50pct	-16	1	OPic/Opic1.jpg	50pct	50pct	-16	1	TPic/Tpic1.jpg	50pct	50pct	-16
113016	20:56:00	1	1	4.0.6.0	1	4		12	0	0	0	0	0	0	OPicsc12	0	802	0	12	OPic/Opic12.jpg	50pct	50pct	-15	1	OPic/Opic1.jpg	50pct	50pct	-15	1	OPic/Opic1.jpg	50pct	50pct	-15	1	TPic/Tpic1.jpg	50pct	50pct	-15
113016	20:56:00	1	1	4.0.6.0	1	5		13	0	0	0	0	0	0	OPicsb13	0	529	0	13	OPic/Opic13.jpg	50pct	50pct	-15	1	OPic/Opic1.jpg	50pct	50pct	-15	1	OPic/Opic1.jpg	50pct	50pct	-15	1	TPic/Tpic1.jpg	50pct	50pct	-15
113016	20:56:00	1	1	4.0.6.0	1	6		14	0	0	0	0	0	0	OPicsc14	0	515	0	14	OPic/Opic14.jpg	50pct	50pct	-16	1	OPic/Opic1.jpg	50pct	50pct	-16	1	OPic/Opic1.jpg	50pct	50pct	-16	1	TPic/Tpic1.jpg	50pct	50pct	-16
113016	20:56:00	1	1	4.0.6.0	1	7		15	0	0	0	0	0	0	OPicsc15	0	574	0	15	OPic/Opic15.jpg	50pct	50pct	-16	1	OPic/Opic1.jpg	50pct	50pct	-16	1	OPic/Opic1.jpg	50pct	50pct	-16	1	TPic/Tpic1.jpg	50pct	50pct	-16
113016	20:56:00	1	1	4.0.6.0	1	8		16	0	0	0	0	0	0	OPicsc16	0	703	0	16	OPic/Opic16.jpg	50pct	50pct	-16	1	OPic/Opic1.jpg	50pct	50pct	-16	1	OPic/Opic1.jpg	50pct	50pct	-16	1	TPic/Tpic1.jpg	50pct	50pct	-16
113016	20:56:00	1	1	4.0.6.0	1	9		2	0	0	0	0	0	0	TPics2	1	463	0	2	OPic/Opic2.jpg	50pct	50pct	-16	1	OPic/Opic1.jpg	50pct	50pct	-16	1	OPic/Opic1.jpg	50pct	50pct	-16	1	TPic/Tpic1.jpg	50pct	50pct	-16
113016	20:56:00	1	1	4.0.6.0	1	10		3	0	0	0	0	0	0	OPicsc3	0	413	0	3	OPic/Opic3.jpg	50pct	50pct	-16	1	OPic/Opic1.jpg	50pct	50pct	-16	1	OPic/Opic1.jpg	50pct	50pct	-16	1	TPic/Tpic1.jpg	50pct	50pct	-16
113016	20:56:00	1	1	4.0.6.0	1	11		4	0	0	0	0	0	0	OPicsc4	0	373	0	4	OPic/Opic4.jpg	50pct	50pct	-16	1	OPic/Opic1.jpg	50pct	50pct	-16	1	OPic/Opic1.jpg	50pct	50pct	-16	1	TPic/Tpic1.jpg	50pct	50pct	-16
113016	20:56:00	1	1	4.0.6.0	1	12		5	0	0	0	0	0	0	OPicsc5	0	868	0	5	OPic/Opic5.jpg	50pct	50pct	-16	1	OPic/Opic1.jpg	50pct	50pct	-16	1	OPic/Opic1.jpg	50pct	50pct	-16	1	TPic/Tpic1.jpg	50pct	50pct	-16
113016	20:56:00	1	1	4.0.6.0	1	13		6	0	0	0	0	0	0	OPicsc6	0	939	0	6	OPic/Opic6.jpg	50pct	50pct	-16	1	OPic/Opic1.jpg	50pct	50pct	-16	1	OPic/Opic1.jpg	50pct	50pct	-16	1	TPic/Tpic1.jpg	50pct	50pct	-16
113016	20:56:00	1	1	4.0.6.0	1	14		7	0	0	0	0	0	0	OPicsb7	0	163	0	7	OPic/Opic7.jpg	50pct	50pct	-16	1	OPic/Opic1.jpg	50pct	50pct	-16	1	OPic/Opic1.jpg	50pct	50pct	-16	1	TPic/Tpic1.jpg	50pct	50pct	-16
113016	20:56:00	1	1	4.0.6.0	1	15		8	0	0	0	0	0	0	OPicsa8	0	421	0	8	OPic/Opic8.jpg	50pct	50pct	-16	1	OPic/Opic1.jpg	50pct	50pct	-16	1	OPic/Opic1.jpg	50pct	50pct	-16	1	TPic/Tpic1.jpg	50pct	50pct	-16
113016	20:56:00	1	1	4.0.6.0	1	16		9	0	0	0	0	0	0	TPics9	1	428	0	9	OPic/Opic9.jpg	50pct	50pct	-16	1	OPic/Opic1.jpg	50pct	50pct	-16	1	OPic/Opic1.jpg	50pct	50pct	-16	1	TPic/Tpic1.jpg	50pct	50pct	-16
113016	20:56:58	1	1	4.0.6.0	1	1		1	0	0	0	0	0	0	OPicsa1	0	1140	0	1	OPic/Opic1.jpg	50pct	50pct	-6	1	OPic/Opic1.jpg	50pct	50pct	-6	1	OPic/Opic1.jpg	50pct	50pct	-6	1	TPic/Tpic1.jpg	50pct	50pct	-6
113016	20:56:58	1	1	4.0.6.0	1	2		10	0	0	0	0	0	0	OPicsa10	0	4377	0	10	OPic/Opic10.jpg	50pct	50pct	-16	1	OPic/Opic1.jpg	50pct	50pct	-16	1	OPic/Opic1.jpg	50pct	50pct	-16	1	TPic/Tpic1.jpg	50pct	50pct	-16
113016	20:56:58	1	1	4.0.6.0	1	3		11	0	0	0	0	0	0	OPicsa11	0	723	0	11	OPic/Opic11.jpg	50pct	50pct	-16	1	OPic/Opic1.jpg	50pct	50pct	-16	1	OPic/Opic1.jpg	50pct	50pct	-16	1	TPic/Tpic1.jpg	50pct	50pct	-16
113016	20:56:58	1	1	4.0.6.0	1	4		12	0	0	0	0	0	0	TPics12	1	1868	0	12	OPic/Opic12.jpg	50pct	50pct	-16	1	OPic/Opic1.jpg	50pct	50pct	-16	1	OPic/Opic1.jpg	50pct	50pct	-16	1	TPic/Tpic1.jpg	50pct	50pct	-16
113016	20:56:58	1	1	4.0.6.0	1	5		13	0	0	0	0	0	0	OPicsa13	0	1188	0	13	OPic/Opic13.jpg	50pct	50pct	-16	1	OPic/Opic1.jpg	50pct	50pct	-16	1	OPic/Opic1.jpg	50pct	50pct	-16	1	TPic/Tpic1.jpg	50pct	50pct	-16
113016	20:56:58	1	1	4.0.6.0	1	6		14	0	0	0	0	0	0	OPicsa14	0	708	0	14	OPic/Opic14.jpg	50pct	50pct	-15	1	OPic/Opic1.jpg	50pct	50pct	-15	1	OPic/Opic1.jpg	50pct	50pct	-15	1	TPic/Tpic1.jpg	50pct	50pct	-15
113016	20:56:58	1	1	4.0.6.0	1	7		15	0	0	0	0	0	0	OPicsa15	0	642	0	15	OPic/Opic15.jpg	50pct	50pct	-16	1	OPic/Opic1.jpg	50pct	50pct	-16	1	OPic/Opic1.jpg	50pct	50pct	-16	1	TPic/Tpic1.jpg	50pct	50pct	-16
113016	20:56:58	1	1	4.0.6.0	1	8		16	0	0	0	0	0	0	TPics16	1	592	0	16	OPic/Opic16.jpg	50pct	50pct	-16	1	OPic/Opic1.jpg	50pct	50pct	-16	1	OPic/Opic1.jpg	50pct	50pct	-16	1	TPic/Tpic1.jpg	50pct	50pct	-16
113016	20:56:58	1	1	4.0.6.0	1	9		2	0	0	0	0	0	0	OPicsa2	0	552	0	2	OPic/Opic2.jpg	50pct	50pct	-16	1	OPic/Opic1.jpg	50pct	50pct	-16	1	OPic/Opic1.jpg	50pct	50pct	-16	1	TPic/Tpic1.jpg	50pct	50pct	-16
113016	20:56:58	1	1	4.0.6.0	1	10		3	0	0	0	0	0	0	OPicsa3	0	474	0	3	OPic/Opic3.jpg	50pct	50pct	-16	1	OPic/Opic1.jpg	50pct	50pct	-16	1	OPic/Opic1.jpg	50pct	50pct	-16	1	TPic/Tpic1.jpg	50pct	50pct	-16
113016	20:56:58	1	1	4.0.6.0	1	11		4	0	0	0	0	0	0	TPics4	1	498	0	4	OPic/Opic4.jpg	50pct	50pct	-16	1	OPic/Opic1.jpg	50pct	50pct	-16	1	OPic/Opic1.jpg	50pct	50pct	-16	1	TPic/Tpic1.jpg	50pct	50pct	-16
113016	20:56:58	1	1	4.0.6.0	1	12		5	0	0	0	0	0	0	OPicsa5	0	524	0	5	OPic/Opic5.jpg	50pct	50pct	-16	1	OPic/Opic1.jpg	50pct	50pct	-16	1	OPic/Opic1.jpg	50pct	50pct	-16	1	TPic/Tpic1.jpg	50pct	50pct	-16
113016	20:56:58	1	1	4.0.6.0	1	13		6	0	0	0	0	0	0	OPicsa6	0	2103	0	6	OPic/Opic6.jpg	50pct	50pct	-16	1	OPic/Opic1.jpg	50pct	50pct	-16	1	OPic/Opic1.jpg	50pct	50pct	-16	1	TPic/Tpic1.jpg	50pct	50pct	-16
113016	20:56:58	1	1	4.0.6.0	1	14		7	0	0	0	0	0	0	OPicsa7	0	85	0	7	OPic/Opic7.jpg	50pct	50pct	-16	1	OPic/Opic1.jpg	50pct	50pct	-16	1	OPic/Opic1.jpg	50pct	50pct	-16	1	TPic/Tpic1.jpg	50pct	50pct	-16
113016	20:56:58	1	1	4.0.6.0	1	15		8	0	0	0	0	0	0	TPics8	1	88	0	8	OPic/Opic8.jpg	50pct	50pct	-16	1	OPic/Opic1.jpg	50pct	50pct	-16	1	OPic/Opic1.jpg	50pct	50pct	-16	1	TPic/Tpic1.jpg	50pct	50pct	-16
113016	20:56:58	1	1	4.0.6.0	1	16		9	0	0	0	0	0	0	OPicsa9	0	74	0	9	OPic/Opic9.jpg	50pct	50pct	-16	1	OPic/Opic1.jpg	50pct	50pct	-16	1	OPic/Opic1.jpg	50pct	50pct	-16	1	TPic/Tpic1.jpg	50pct	50pct	-16
113016	21:08:18	1	1	4.0.6.0	1	1	pic	4	0	0	0	0	0	0	TPics4	1	2252	0	4	OPic/Opic4.jpg	50pct	50pct	-6	1	OPic/Opic1.jpg	50pct	50pct	-6	1	OPic/Opic1.jpg	50pct	50pct	-6	1	TPic/Tpic1.jpg	50pct	50pct	-6
113016	21:08:18	1	1	4.0.6.0	1	2	pic	2	0	0	0	0	0	0	OPicsc2	0	1260	0	2	OPic/Opic2.jpg	50pct	50pct	-16	1	OPic/Opic1.jpg	50pct	50pct	-16	1	OPic/Opic1.jpg	50pct	50pct	-16	1	TPic/Tpic1.jpg	50pct	50pct	-16
113016	21:08:18	1	1	4.0.6.0	1	3	pic	5	0	0	0	0	0	0	OPicsb5	0	763	0	5	OPic/Opic5.jpg	50pct	50pct	-6	1	OPic/Opic1.jpg	50pct	50pct	-6	1	OPic/Opic1.jpg	50pct	50pct	-6	1	TPic/Tpic1.jpg	50pct	50pct	-6
113016	21:08:18	1	1	4.0.6.0	1	4	pic	3	0	0	0	0	0	0	OPicsc3	0	463	0	3	OPic/Opic3.jpg	50pct	50pct	-6	1	OPic/Opic1.jpg	50pct	50pct	-6	1	OPic/Opic1.jpg	50pct	50pct	-6	1	TPic/Tpic1.jpg	50pct	50pct	-6
113016	21:08:18	1	1	4.0.6.0	1	5	pic	14	0	0	0	0	0	0	OPicsc14	0	518	0	14	OPic/Opic14.jpg	50pct	50pct	-7	1	OPic/Opic1.jpg	50pct	50pct	-7	1	OPic/Opic1.jpg	50pct	50pct	-7	1	TPic/Tpic1.jpg	50pct	50pct	-7
113016	21:08:18	1	1	4.0.6.0	1	6	pic	9	0	0	0	0	0	0	TPics9	1	346	0	9	OPic/Opic9.jpg	50pct	50pct	-16	1	OPic/Opic1.jpg	50pct	50pct	-16	1	OPic/Opic1.jpg	50pct	50pct	-16	1	TPic/Tpic1.jpg	50pct	50pct	-16
113016	21:08:18	1	1	4.0.6.0	1	7	pic	11	0	0	0	0	0	0	OPicsb11	0	170	0	11	OPic/Opic11.jpg	50pct	50pct	-15	1	OPic/Opic1.jpg	50pct	50pct	-15	1	OPic/Opic1.jpg	50pct	50pct	-15	1	TPic/Tpic1.jpg	50pct	50pct	-15
113016	21:08:18	1	1	4.0.6.0	1	8	pic	1	0	0	0	0	0	0	TPics1	1	210	0	1	OPic/Opic1.jpg	50pct	50pct	-15	1	OPic/Opic1.jpg	50pct	50pct	-15	1	OPic/Opic1.jpg	50pct	50pct	-15	1	TPic/Tpic1.jpg	50pct	50pct	-15
113016	21:08:18	1	1	4.0.6.0	1	9	pic	12	0	0	0	0	0	0	OPicsa12	0	211	0	12	OPic/Opic12.jpg	50pct	50pct	-15	1	OPic/Opic1.jpg	50pct	50pct	-15	1	OPic/Opic1.jpg	50pct	50pct	-15	1	TPic/Tpic1.jpg	50pct	50pct	-15
113016	21:08:18	1	1	4.0.6.0	1	10	pic	8	0	0	0	0	0	0	OPicsa8	0	596	0	8	OPic/Opic8.jpg	50pct	50pct	-15	1	OPic/Opic1.jpg	50pct	50pct	-15	1	OPic/Opic1.jpg	50pct	50pct	-15	1	TPic/Tpic1.jpg	50pct	50pct	-15
113016	21:08:18	1	1	4.0.6.0	1	11	pic	13	0	0	0	0	0	0	TPics13	1	226	0	13	OPic/Opic13.jpg	50pct	50pct	-8	1	OPic/Opic1.jpg	50pct	50pct	-8	1	OPic/Opic1.jpg	50pct	50pct	-8	1	TPic/Tpic1.jpg	50pct	50pct	-8
113016	21:08:18	1	1	4.0.6.0	1	12	pic	10	0	0	0	0	0	0	OPicsc10	0	482	0	10	OPic/Opic10.jpg	50pct	50pct	-16	1	OPic/Opic1.jpg	50pct	50pct	-16	1	OPic/Opic1.jpg	50pct	50pct	-16	1	TPic/Tpic1.jpg	50pct	50pct	-16
113016	21:08:18	1	1	4.0.6.0	1	13	pic	15	0	0	0	0	0	0	OPicsb15	0	900	0	15	OPic/Opic15.jpg	50pct	50pct	-6	1	OPic/Opic1.jpg	50pct	50pct	-6	1	OPic/Opic1.jpg	50pct	50pct	-6	1	TPic/Tpic1.jpg	50pct	50pct	-6
113016	21:08:18	1	1	4.0.6.0	1	14	pic	16	0	0	0	0	0	0	OPicsa16	0	528	0	16	OPic/Opic16.jpg	50pct	50pct	-16	1	OPic/Opic1.jpg	50pct	50pct	-16	1	OPic/Opic1.jpg	50pct	50pct	-16	1	TPic/Tpic1.jpg	50pct	50pct	-16
113016	21:08:18	1	1	4.0.6.0	1	15	pic	6	0	0	0	0	0	0	OPicsc6	0	1124	0	6	OPic/Opic6.jpg	50pct	50pct	-7	1	OPic/Opic1.jpg	50pct	50pct	-7	1	OPic/Opic1.jpg	50pct	50pct	-7	1	TPic/Tpic1.jpg	50pct	50pct	-7
113016	21:08:18	1	1	4.0.6.0	1	16	pic	7	0	0	0	0	0	0	OPicsb7	0	488	0	7	OPic/Opic7.jpg	50pct	50pct	-16	1	OPic/Opic1.jpg	50pct	50pct	-16	1	OPic/Opic1.jpg	50pct	50pct	-16	1	TPic/Tpic1.jpg	50pct	50pct	-16
113016	21:10:14	1	1	4.0.6.0	1	1	pic	12	0	0	0	0	0	0	OPicsc12	0	3263	0	12	OPic/Opic12.jpg	50pct	50pct	-5	1	OPic/Opic1.jpg	50pct	50pct	-5	1	OPic/Opic1.jpg	50pct	50pct	-5	1	TPic/Tpic1.jpg	50pct	50pct	-5
113016	21:10:14	1	1	4.0.6.0	1	2	pic	8	0	0	0	0	0	0	OPicsc8	0	635	0	8	OPic/Opic8.jpg	50pct	50pct	-6	1	OPic/Opic1.jpg	50pct	50pct	-6	1	OPic/Opic1.jpg	50pct	50pct	-6	1	TPic/Tpic1.jpg	50pct	50pct	-6
113016	21:10:14	1	1	4.0.6.0	1	3	pic	7	0	0	0	0	0	0	OPicsc7	0	703	0	7	OPic/Opic7.jpg	50pct	50pct	-16	1	OPic/Opic1.jpg	50pct	50pct	-16	1	OPic/Opic1.jpg	50pct	50pct	-16	1	TPic/Tpic1.jpg	50pct	50pct	-16
113016	21:10:14	1	1	4.0.6.0	1	4	pic	6	0	0	0	0	0	0	TPics6	1	428	0	6	OPic/Opic6.jpg	50pct	50pct	-16	1	OPic/Opic1.jpg	50pct	50pct	-16	1	OPic/Opic1.jpg	50pct	50pct	-16	1	TPic/Tpic1.jpg	50pct	50pct	-16
113016	21:10:14	1	1	4.0.6.0	1	5	pic	3	0	0	0	0	0	0	OPicsc3	0	331	0	3	OPic/Opic3.jpg	50pct	50pct	-16	1	OPic/Opic1.jpg	50pct	50pct	-16	1	OPic/Opic1.jpg	50pct	50pct	-16	1	TPic/Tpic1.jpg	50pct	50pct	-16
113016	21:10:14	1	1	4.0.6.0	1	6	pic	11	0	0	0	0	0	0	OPicsc11	0	479	0	11	OPic/Opic11.jpg	50pct	50pct	-16	1	OPic/Opic1.jpg	50pct	50pct	-16	1	OPic/Opic1.jpg	50pct	50pct	-16	1	TPic/Tpic1.jpg	50pct	50pct	-16
113016	21:10:14	1	1	4.0.6.0	1	7	pic	1	0	0	0	0	0	0	OPicsc1	0	420	0	1	OPic/Opic1.jpg	50pct	50pct	-16	1	OPic/Opic1.jpg	50pct	50pct	-16	1	OPic/Opic1.jpg	50pct	50pct	-16	1	TPic/Tpic1.jpg	50pct	50pct	-16
113016	21:10:14	1	1	4.0.6.0	1	8	pic	13	0	0	0	0	0	0	OPicsc13	0	940	0	13	OPic/Opic13.jpg	50pct	50pct	-16	1	OPic/Opic1.jpg	50pct	50pct	-16	1	OPic/Opic1.jpg	50pct	50pct	-16	1	TPic/Tpic1.jpg	50pct	50pct	-16
113016	21:10:14	1	1	4.0.6.0	1	9	pic	5	0	0	0	0	0	0	OPicsc5	0	407	0	5	OPic/Opic5.jpg	50pct	50pct	-16	1	OPic/Opic1.jpg	50pct	50pct	-16	1	OPic/Opic1.jpg	50pct	50pct	-16	1	TPic/Tpic1.jpg	50pct	50pct	-16
113016	21:10:14	1	1	4.0.6.0	1	10	pic	14	0	0	0	0	0	0	TPics14	1	377	0	14	OPic/Opic14.jpg	50pct	50pct	-16	1	OPic/Opic1.jpg	50pct	50pct	-16	1	OPic/Opic1.jpg	50pct	50pct	-16	1	TPic/Tpic1.jpg	50pct	50pct	-16
113016	21:10:14	1	1	4.0.6.0	1	11	pic	9	0	0	0	0	0	0	OPicsc9	0	469	0	9	OPic/Opic9.jpg	50pct	50pct	-16	1	OPic/Opic1.jpg	50pct	50pct	-16	1	OPic/Opic1.jpg	50pct	50pct	-16	1	TPic/Tpic1.jpg	50pct	50pct	-16
113016	21:10:14	1	1	4.0.6.0	1	12	pic	15	0	0	0	0	0	0	OPicsc15	0	385	0	15	OPic/Opic15.jpg	50pct	50pct	-16	1	OPic/Opic1.jpg	50pct	50pct	-16	1	OPic/Opic1.jpg	50pct	50pct	-16	1	TPic/Tpic1.jpg	50pct	50pct	-16
113016	21:10:14	1	1	4.0.6.0	1	13	pic	4	0	0	0	0	0	0	OPicsc4	0	994	0	4	OPic/Opic4.jpg	50pct	50pct	-15	1	OPic/Opic1.jpg	50pct	50pct	-15	1	OPic/Opic1.jpg	50pct	50pct	-15	1	TPic/Tpic1.jpg	50pct	50pct	-15
113016	21:10:14	1	1	4.0.6.0	1	14	pic	2	0	0	0	0	0	0	TPics2	1	1681	0	2	OPic/Opic2.jpg	50pct	50pct	-16	2	OPic/Opic2.jpg	50pct	50pct	-16	2	OPic/Opic2.jpg	50pct	50pct	-16	2	TPic/Tpic12.jpg	50pct	50pct	-16
113016	21:10:14	1	1	4.0.6.0	1	15	pic	16	0	0	0	0	0	0	OPicsc16	0	954	0	16	OPic/Opic16.jpg	50pct	50pct	-7	1	OPic/Opic1.jpg	50pct	50pct	-7	1	OPic/Opic1.jpg	50pct	50pct	-7	1	TPic/Tpic1.jpg	50pct	50pct	-7
113016	21:10:14	1	1	4.0.6.0	1	16	pic	10	0	0	0	0	0	0	TPics10	1	596	0	10	OPic/Opic10.jpg	50pct	50pct	-16	1	OPic/Opic1.jpg	50pct	50pct	-16	1	OPic/Opic1.jpg	50pct	50pct	-16	1	TPic/Tpic1.jpg	50pct	50pct	-16
113016	21:11:28	1	1	4.0.6.0	1	1	pic	15	0	0	0	0	0	0	TPics15	1	1604	0	15	OPic/Opic15.jpg	50pct	50pct	-6	1	OPic/Opic1.jpg	50pct	50pct	-6	1	OPic/Opic1.jpg	50pct	50pct	-6	1	TPic/Tpic1.jpg	50pct	50pct	-6
113016	21:11:28	1	1	4.0.6.0	1	2	pic	12	0	0	0	0	0	0	OPicsb12	0	931	0	12	OPic/Opic12.jpg	50pct	50pct	-15	1	OPic/Opic1.jpg	50pct	50pct	-15	1	OPic/Opic1.jpg	50pct	50pct	-15	1	TPic/Tpic1.jpg	50pct	50pct	-15
113016	21:11:28	1	1	4.0.6.0	1	3	pic	1	0	0	0	0	0	0	OPicsc1	0	646	0	1	OPic/Opic1.jpg	50pct	50pct	-8	1	OPic/Opic1.jpg	50pct	50pct	-8	1	OPic/Opic1.jpg	50pct	50pct	-8	1	TPic/Tpic1.jpg	50pct	50pct	-8
113016	21:11:28	1	1	4.0.6.0	1	4	pic	7	0	0	0	0	0	0	OPicsc7	0	606	0	7	OPic/Opic7.jpg	50pct	50pct	-7	1	OPic/Opic1.jpg	50pct	50pct	-7	1	OPic/Opic1.jpg	50pct	50pct	-7	1	TPic/Tpic1.jpg	50pct	50pct	-7
113016	21:11:28	1	1	4.0.6.0	1	5	pic	2	0	0	0	0	0	0	TPics2	1	794	0	2	OPic/Opic2.jpg	50pct	50pct	-15	2	OPic/Opic2.jpg	50pct	50pct	-15	2	OPic/Opic2.jpg	50pct	50pct	-15	2	TPic/Tpic2.jpg	50pct	50pct	-15
113016	21:11:28	1	1	4.0.6.0	1	6	pic	6	0	0	0	0	0	0	OPicsc6	0	973	0	6	OPic/Opic6.jpg	50pct	50pct	-8	1	OPic/Opic1.jpg	50pct	50pct	-8	1	OPic/Opic1.jpg	50pct	50pct	-8	1	TPic/Tpic1.jpg	50pct	50pct	-8
113016	21:11:28	1	1	4.0.6.0	1	7	pic	4	0	0	0	0	0	0	OPicsb4	0	793	0	4	OPic/Opic4.jpg	50pct	50pct	-6	1	OPic/Opic1.jpg	50pct	50pct	-6	1	OPic/Opic1.jpg	50pct	50pct	-6	1	TPic/Tpic1.jpg	50pct	50pct	-6
113016	21:11:28	1	1	4.0.6.0	1	8	pic	9	0	0	0	0	0	0	OPicsc9	0	482	0	9	OPic/Opic9.jpg	50pct	50pct	-7	1	OPic/Opic1.jpg	50pct	50pct	-7	1	OPic/Opic1.jpg	50pct	50pct	-7	1	TPic/Tpic1.jpg	50pct	50pct	-7
113016	21:11:28	1	1	4.0.6.0	1	9	pic	3	0	0	0	0	0	0	OPicsb3	0	510	0	3	OPic/Opic3.jpg	50pct	50pct	-6	1	OPic/Opic1.jpg	50pct	50pct	-6	1	OPic/Opic1.jpg	50pct	50pct	-6	1	TPic/Tpic1.jpg	50pct	50pct	-6
113016	21:11:28	1	1	4.0.6.0	1	10	pic	11	0	0	0	0	0	0	OPicsb11	0	468	0	11	OPic/Opic11.jpg	50pct	50pct	-7	1	OPic/Opic1.jpg	50pct	50pct	-7	1	OPic/Opic1.jpg	50pct	50pct	-7	1	TPic/Tpic1.jpg	50pct	50pct	-7
113016	21:11:28	1	1	4.0.6.0	1	11	pic	13	0	0	0	0	0	0	OPicsc13	0	403	0	13	OPic/Opic13.jpg	50pct	50pct	-16	1	OPic/Opic1.jpg	50pct	50pct	-16	1	OPic/Opic1.jpg	50pct	50pct	-16	1	TPic/Tpic1.jpg	50pct	50pct	-16
113016	21:11:28	1	1	4.0.6.0	1	12	pic	14	0	0	0	0	0	0	TPics14	1	137	0	14	OPic/Opic14.jpg	50pct	50pct	-16	1	OPic/Opic1.jpg	50pct	50pct	-16	1	OPic/Opic1.jpg	50pct	50pct	-16	1	TPic/Tpic1.jpg	50pct	50pct	-16
113016	21:11:28	1	1	4.0.6.0	1	13	pic	8	0	0	0	0	0	0	OPicsc8	0	123	0	8	OPic/Opic8.jpg	50pct	50pct	-16	1	OPic/Opic1.jpg	50pct	50pct	-16	1	OPic/Opic1.jpg	50pct	50pct	-16	1	TPic/Tpic1.jpg	50pct	50pct	-16
113016	21:11:28	1	1	4.0.6.0	1	14	pic	10	0	0	0	0	0	0	TPics10	1	86	0	10	OPic/Opic10.jpg	50pct	50pct	-16	1	OPic/Opic1.jpg	50pct	50pct	-16	1	OPic/Opic1.jpg	50pct	50pct	-16	1	TPic/Tpic1.jpg	50pct	50pct	-16
113016	21:11:28	1	1	4.0.6.0	1	15	pic	5	0	0	0	0	0	0	OPicsc5	0	106	0	5	OPic/Opic5.jpg	50pct	50pct	-16	1	OPic/Opic1.jpg	50pct	50pct	-16	1	OPic/Opic1.jpg	50pct	50pct	-16	1	TPic/Tpic1.jpg	50pct	50pct	-16
113016	21:11:28	1	1	4.0.6.0	1	16	pic	16	0	0	0	0	0	0	OPicsc16	0	85	0	16	OPic/Opic16.jpg	50pct	50pct	-16	1	OPic/Opic1.jpg	50pct	50pct	-16	1	OPic/Opic1.jpg	50pct	50pct	-16	1	TPic/Tpic1.jpg	50pct	50pct	-16
113016	21:13:07	1	1	4.0.6.0	1	1	pic	13	0	0	0	0	0	0	TPics13	1	1319	0	13	OPic/Opic13.jpg	50pct	50pct	-9	1	OPic/Opic1.jpg	50pct	50pct	-9	1	OPic/Opic1.jpg	50pct	50pct	-9	1	TPic/Tpic1.jpg	50pct	50pct	-9
113016	21:13:07	1	1	4.0.6.0	1	2	pic	10	0	0	0	0	0	0	OPicsc10	0	614	0	10	OPic/Opic10.jpg	50pct	50pct	-16	1	OPic/Opic1.jpg	50pct	50pct	-16	1	OPic/Opic1.jpg	50pct	50pct	-16	1	TPic/Tpic1.jpg	50pct	50pct	-16
113016	21:13:07	1	1	4.0.6.0	1	3	pic	7	0	0	0	0	0	0	TPics7	1	1223	0	7	OPic/Opic7.jpg	50pct	50pct	-8	7	OPic/Opic7.jpg	50pct	50pct	-8	7	OPic/Opic7.jpg	50pct	50pct	-8	7	TPic/Tpic7.jpg	50pct	50pct	-8
113016	21:13:07	1	1	4.0.6.0	1	4	pic	11	0	0	0	0	0	0	TPics11	1	898	0	11	OPic/Opic11.jpg	50pct	50pct	-16	1	OPic/Opic1.jpg	50pct	50pct	-16	1	OPic/Opic1.jpg	50pct	50pct	-16	1	TPic/Tpic1.jpg	50pct	50pct	-16
113016	21:13:07	1	1	4.0.6.0	1	5	pic	12	0	0	0	0	0	0	OPicsb12	0	800	0	12	OPic/Opic12.jpg	50pct	50pct	-6	1	OPic/Opic1.jpg	50pct	50pct	-6	1	OPic/Opic1.jpg	50pct	50pct	-6	1	TPic/Tpic1.jpg	50pct	50pct	-6
113016	21:13:07	1	1	4.0.6.0	1	6	pic	9	0	0	0	0	0	0	TPics9	1	1187	0	9	OPic/Opic9.jpg	50pct	50pct	-6	9	OPic/Opic9.jpg	50pct	50pct	-6	9	OPic/Opic9.jpg	50pct	50pct	-6	9	TPic/Tpic9.jpg	50pct	50pct	-6
113016	21:13:07	1	1	4.0.6.0	1	7	pic	3	0	0	0	0	0	0	OPicsb3	0	1996	0	3	OPic/Opic3.jpg	50pct	50pct	-16	3	OPic/Opic3.jpg	50pct	50pct	-16	3	OPic/Opic3.jpg	50pct	50pct	-16	3	TPic/Tpic3.jpg	50pct	50pct	-16
113016	21:13:07	1	1	4.0.6.0	1	8	pic	1	0	0	0	0	0	0	TPics1	1	939	0	1	OPic/Opic1.jpg	50pct	50pct	-15	1	OPic/Opic1.jpg	50pct	50pct	-15	1	OPic/Opic1.jpg	50pct	50pct	-15	1	TPic/Tpic1.jpg	50pct	50pct	-15
113016	21:13:07	1	1	4.0.6.0	1	9	pic	5	0	0	0	0	0	0	TPics5	1	927	0	5	OPic/Opic5.jpg	50pct	50pct	-16	5	OPic/Opic5.jpg	50pct	50pct	-16	5	OPic/Opic5.jpg	50pct	50pct	-16	5	TPic/Tpic5.jpg	50pct	50pct	-16
113016	21:13:07	1	1	4.0.6.0	1	10	pic	8	0	0	0	0	0	0	TPics8	1	1076	0	8	OPic/Opic8.jpg	50pct	50pct	-6	8	OPic/Opic8.jpg	50pct	50pct	-6	8	OPic/Opic8.jpg	50pct	50pct	-6	8	TPic/Tpic8.jpg	50pct	50pct	-6
113016	21:13:07	1	1	4.0.6.0	1	11	pic	2	0	0	0	0	0	0	TPics2	1	1375	0	2	OPic/Opic2.jpg	50pct	50pct	-7	2	OPic/Opic2.jpg	50pct	50pct	-7	2	OPic/Opic2.jpg	50pct	50pct	-7	2	TPic/Tpic2.jpg	50pct	50pct	-7
113016	21:13:07	1	1	4.0.6.0	1	12	pic	16	0	0	0	0	0	0	OPicsc16	0	1097	0	16	OPic/Opic16.jpg	50pct	50pct	-16	1	OPic/Opic1.jpg	50pct	50pct	-16	1	OPic/Opic1.jpg	50pct	50pct	-16	1	TPic/Tpic1.jpg	50pct	50pct	-16
113016	21:13:07	1	1	4.0.6.0	1	13	pic	15	0	0	0	0	0	0	OPicsc15	0	767	0	15	OPic/Opic15.jpg	50pct	50pct	-6	1	OPic/Opic1.jpg	50pct	50pct	-6	1	OPic/Opic1.jpg	50pct	50pct	-6	1	TPic/Tpic1.jpg	50pct	50pct	-6
113016	21:13:07	1	1	4.0.6.0	1	14	pic	6	0	0	0	0	0	0	TPics6	1	863	0	6	OPic/Opic6.jpg	50pct	50pct	-16	6	OPic/Opic6.jpg	50pct	50pct	-16	6	OPic/Opic6.jpg	50pct	50pct	-16	6	TPic/Tpic6.jpg	50pct	50pct	-16
113016	21:13:07	1	1	4.0.6.0	1	15	pic	14	0	0	0	0	0	0	TPics14	1	1371	0	14	OPic/Opic14.jpg	50pct	50pct	-7	1	OPic/Opic1.jpg	50pct	50pct	-7	1	OPic/Opic1.jpg	50pct	50pct	-7	1	TPic/Tpic1.jpg	50pct	50pct	-7
113016	21:13:07	1	1	4.0.6.0	1	16	pic	4	0	0	0	0	0	0	TPics4	1	2329	0	4	OPic/Opic4.jpg	50pct	50pct	-6	4	OPic/Opic4.jpg	50pct	50pct	-6	4	OPic/Opic4.jpg	50pct	50pct	-6	4	TPic/Tpic4.jpg	50pct	50pct	-6
113016	21:14:50	1	1	4.0.6.0	1	1	pic	3	0	0	0	0	0	0	TPics3	1	1624	0	3	OPic/Opic3.jpg	50pct	50pct	-7	3	OPic/Opic3.jpg	50pct	50pct	-7	3	OPic/Opic3.jpg	50pct	50pct	-7	3	TPic/Tpic3.jpg	50pct	50pct	-7
113016	21:14:50	1	1	4.0.6.0	1	2	pic	14	0	0	0	0	0	0	TPics14	1	1025	0	14	OPic/Opic14.jpg	50pct	50pct	-16	14	OPic/Opic14.jpg	50pct	50pct	-16	14	OPic/Opic14.jpg	50pct	50pct	-16	14	TPic/Tpic14.jpg	50pct	50pct	-16
113016	21:14:50	1	1	4.0.6.0	1	3	pic	16	0	0	0	0	0	0	TPics16	1	808	0	16	OPic/Opic16.jpg	50pct	50pct	-8	16	OPic/Opic16.jpg	50pct	50pct	-8	16	OPic/Opic16.jpg	50pct	50pct	-8	16	TPic/Tpic16.jpg	50pct	50pct	-8
113016	21:14:50	1	1	4.0.6.0	1	4	pic	7	0	0	0	0	0	0	TPics7	1	800	0	7	OPic/Opic7.jpg	50pct	50pct	-8	7	OPic/Opic7.jpg	50pct	50pct	-8	7	OPic/Opic7.jpg	50pct	50pct	-8	7	TPic/Tpic7.jpg	50pct	50pct	-8
113016	21:14:50	1	1	4.0.6.0	1	5	pic	4	0	0	0	0	0	0	TPics4	1	1408	0	4	OPic/Opic4.jpg	50pct	50pct	-16	4	OPic/Opic4.jpg	50pct	50pct	-16	4	OPic/Opic4.jpg	50pct	50pct	-16	4	TPic/Tpic4.jpg	50pct	50pct	-16
113016	21:14:50	1	1	4.0.6.0	1	6	pic	2	0	0	0	0	0	0	OPicsa2	0	2466	0	2	OPic/Opic2.jpg	50pct	50pct	-16	2	OPic/Opic2.jpg	50pct	50pct	-16	2	OPic/Opic2.jpg	50pct	50pct	-16	2	TPic/Tpic2.jpg	50pct	50pct	-16
113016	21:14:50	1	1	4.0.6.0	1	7	pic	13	0	0	0	0	0	0	TPics13	1	975	0	13	OPic/Opic13.jpg	50pct	50pct	-6	13	OPic/Opic13.jpg	50pct	50pct	-6	13	OPic/Opic13.jpg	50pct	50pct	-6	13	TPic/Tpic13.jpg	50pct	50pct	-6
113016	21:14:50	1	1	4.0.6.0	1	8	pic	10	0	0	0	0	0	0	TPics10	1	1384	0	10	OPic/Opic10.jpg	50pct	50pct	-16	10	OPic/Opic10.jpg	50pct	50pct	-16	10	OPic/Opic10.jpg	50pct	50pct	-16	10	TPic/Tpic10.jpg	50pct	50pct	-16
113016	21:14:50	1	1	4.0.6.0	1	9	pic	8	0	0	0	0	0	0	TPics8	1	898	0	8	OPic/Opic8.jpg	50pct	50pct	-16	8	OPic/Opic8.jpg	50pct	50pct	-16	8	OPic/Opic8.jpg	50pct	50pct	-16	8	TPic/Tpic8.jpg	50pct	50pct	-16
113016	21:14:50	1	1	4.0.6.0	1	10	pic	12	0	0	0	0	0	0	TPics12	1	776	0	12	OPic/Opic12.jpg	50pct	50pct	-7	12	OPic/Opic12.jpg	50pct	50pct	-7	12	OPic/Opic12.jpg	50pct	50pct	-7	12	TPic/Tpic12.jpg	50pct	50pct	-7
113016	21:14:50	1	1	4.0.6.0	1	11	pic	6	0	0	0	0	0	0	TPics6	1	784	0	6	OPic/Opic6.jpg	50pct	50pct	-8	6	OPic/Opic6.jpg	50pct	50pct	-8	6	OPic/Opic6.jpg	50pct	50pct	-8	6	TPic/Tpic6.jpg	50pct	50pct	-8
113016	21:14:50	1	1	4.0.6.0	1	12	pic	1	0	0	0	0	0	0	OPicsa1	0	1602	0	1	OPic/Opic1.jpg	50pct	50pct	-15	1	OPic/Opic1.jpg	50pct	50pct	-15	1	OPic/Opic1.jpg	50pct	50pct	-15	1	TPic/Tpic1.jpg	50pct	50pct	-15
113016	21:14:50	1	1	4.0.6.0	1	13	pic	15	0	0	0	0	0	0	TPics15	1	856	0	15	OPic/Opic15.jpg	50pct	50pct	-15	15	OPic/Opic15.jpg	50pct	50pct	-15	15	OPic/Opic15.jpg	50pct	50pct	-15	15	TPic/Tpic15.jpg	50pct	50pct	-15
113016	21:14:50	1	1	4.0.6.0	1	14	pic	9	0	0	0	0	0	0	TPics9	1	816	0	9	OPic/Opic9.jpg	50pct	50pct	-16	9	OPic/Opic9.jpg	50pct	50pct	-16	9	OPic/Opic9.jpg	50pct	50pct	-16	9	TPic/Tpic9.jpg	50pct	50pct	-16
113016	21:14:50	1	1	4.0.6.0	1	15	pic	11	0	0	0	0	0	0	TPics11	1	879	0	11	OPic/Opic11.jpg	50pct	50pct	-16	11	OPic/Opic11.jpg	50pct	50pct	-16	11	OPic/Opic11.jpg	50pct	50pct	-16	11	TPic/Tpic11.jpg	50pct	50pct	-16
113016	21:14:50	1	1	4.0.6.0	1	16	pic	5	0	0	0	0	0	0	TPics5	1	1885	0	5	OPic/Opic5.jpg	50pct	50pct	-7	5	OPic/Opic5.jpg	50pct	50pct	-7	5	OPic/Opic5.jpg	50pct	50pct	-7	5	TPic/Tpic5.jpg	50pct	50pct	-7
113016	21:15:26	1	1	4.0.6.0	1	1	pic	11	0	0	0	0	0	0	TPics11	1	1054	0	11	OPic/Opic11.jpg	50pct	50pct	-5	11	OPic/Opic11.jpg	50pct	50pct	-5	11	OPic/Opic11.jpg	50pct	50pct	-5	11	TPic/Tpic11.jpg	50pct	50pct	-5
113016	21:15:26	1	1	4.0.6.0	1	2	pic	1	0	0	0	0	0	0	OPicsb1	0	2213	0	1	OPic/Opic1.jpg	50pct	50pct	-16	1	OPic/Opic1.jpg	50pct	50pct	-16	1	OPic/Opic1.jpg	50pct	50pct	-16	1	TPic/Tpic1.jpg	50pct	50pct	-16
113016	21:15:26	1	1	4.0.6.0	1	3	pic	14	0	0	0	0	0	0	TPics14	1	838	0	14	OPic/Opic14.jpg	50pct	50pct	-6	14	OPic/Opic14.jpg	50pct	50pct	-6	14	OPic/Opic14.jpg	50pct	50pct	-6	14	TPic/Tpic14.jpg	50pct	50pct	-6
113016	21:15:26	1	1	4.0.6.0	1	4	pic	5	0	0	0	0	0	0	TPics5	1	1390	0	5	OPic/Opic5.jpg	50pct	50pct	-16	5	OPic/Opic5.jpg	50pct	50pct	-16	5	OPic/Opic5.jpg	50pct	50pct	-16	5	TPic/Tpic5.jpg	50pct	50pct	-16
113016	21:15:26	1	1	4.0.6.0	1	5	pic	13	0	0	0	0	0	0	TPics13	1	566	0	13	OPic/Opic13.jpg	50pct	50pct	-15	13	OPic/Opic13.jpg	50pct	50pct	-15	13	OPic/Opic13.jpg	50pct	50pct	-15	13	TPic/Tpic13.jpg	50pct	50pct	-15
113016	21:15:26	1	1	4.0.6.0	1	6	pic	6	0	0	0	0	0	0	TPics6	1	805	0	6	OPic/Opic6.jpg	50pct	50pct	-16	6	OPic/Opic6.jpg	50pct	50pct	-16	6	OPic/Opic6.jpg	50pct	50pct	-16	6	TPic/Tpic6.jpg	50pct	50pct	-16
113016	21:15:26	1	1	4.0.6.0	1	7	pic	2	0	0	0	0	0	0	OPicsc2	0	2091	0	2	OPic/Opic2.jpg	50pct	50pct	-16	2	OPic/Opic2.jpg	50pct	50pct	-16	2	OPic/Opic2.jpg	50pct	50pct	-16	2	TPic/Tpic2.jpg	50pct	50pct	-16
113016	21:15:26	1	1	4.0.6.0	1	8	pic	12	0	0	0	0	0	0	TPics12	1	984	0	12	OPic/Opic12.jpg	50pct	50pct	-15	12	OPic/Opic12.jpg	50pct	50pct	-15	12	OPic/Opic12.jpg	50pct	50pct	-15	12	TPic/Tpic12.jpg	50pct	50pct	-15
113016	21:15:26	1	1	4.0.6.0	1	9	pic	15	0	0	0	0	0	0	TPics15	1	804	0	15	OPic/Opic15.jpg	50pct	50pct	-15	15	OPic/Opic15.jpg	50pct	50pct	-15	15	OPic/Opic15.jpg	50pct	50pct	-15	15	TPic/Tpic15.jpg	50pct	50pct	-15
113016	21:15:26	1	1	4.0.6.0	1	10	pic	3	0	0	0	0	0	0	TPics3	1	2073	0	3	OPic/Opic3.jpg	50pct	50pct	-16	3	OPic/Opic3.jpg	50pct	50pct	-16	3	OPic/Opic3.jpg	50pct	50pct	-16	3	TPic/Tpic3.jpg	50pct	50pct	-16
113016	21:15:26	1	1	4.0.6.0	1	11	pic	7	0	0	0	0	0	0	TPics7	1	630	0	7	OPic/Opic7.jpg	50pct	50pct	-16	7	OPic/Opic7.jpg	50pct	50pct	-16	7	OPic/Opic7.jpg	50pct	50pct	-16	7	TPic/Tpic7.jpg	50pct	50pct	-16
113016	21:15:26	1	1	4.0.6.0	1	12	pic	10	0	0	0	0	0	0	TPics10	1	979	0	10	OPic/Opic10.jpg	50pct	50pct	-7	10	OPic/Opic10.jpg	50pct	50pct	-7	10	OPic/Opic10.jpg	50pct	50pct	-7	10	TPic/Tpic10.jpg	50pct	50pct	-7
113016	21:15:26	1	1	4.0.6.0	1	13	pic	9	0	0	0	0	0	0	TPics9	1	1053	0	9	OPic/Opic9.jpg	50pct	50pct	-7	9	OPic/Opic9.jpg	50pct	50pct	-7	9	OPic/Opic9.jpg	50pct	50pct	-7	9	TPic/Tpic9.jpg	50pct	50pct	-7
113016	21:15:26	1	1	4.0.6.0	1	14	pic	8	0	0	0	0	0	0	TPics8	1	900	0	8	OPic/Opic8.jpg	50pct	50pct	-16	8	OPic/Opic8.jpg	50pct	50pct	-16	8	OPic/Opic8.jpg	50pct	50pct	-16	8	TPic/Tpic8.jpg	50pct	50pct	-16
113016	21:15:26	1	1	4.0.6.0	1	15	pic	16	0	0	0	0	0	0	TPics16	1	537	0	16	OPic/Opic16.jpg	50pct	50pct	-16	16	OPic/Opic16.jpg	50pct	50pct	-16	16	OPic/Opic16.jpg	50pct	50pct	-16	16	TPic/Tpic16.jpg	50pct	50pct	-16
113016	21:15:26	1	1	4.0.6.0	1	16	pic	4	0	0	0	0	0	0	TPics4	1	1722	0	4	OPic/Opic4.jpg	50pct	50pct	-15	4	OPic/Opic4.jpg	50pct	50pct	-15	4	OPic/Opic4.jpg	50pct	50pct	-15	4	TPic/Tpic4.jpg	50pct	50pct	-15
