date	time	group	subject	build	blocknum	trialnum	blockcode	trialcode	pretrialpause	posttrialpause	trialduration	trialtimeout	response	correct	latency	stimulusnumber1	stimulusitem1	stimulusonset1	stimulusnumber2	stimulusitem2	stimulusonset2	stimulusnumber3	stimulusitem3	stimulusonset3	stimulusnumber4	stimulusitem4	stimulusonset4	stimulusnumber5	stimulusitem5	stimulusonset5
120116	10:50:26	1	1	5.0.5.0	2	1	picblk	npic01	100	0	0	0	lbuttondown	0	6859	1	+	0	1	1.jpg	816	1	pic2.jpg	816	1	1.jpg	816	1	1.jpg	816
120116	10:50:26	1	1	5.0.5.0	2	2	picblk	npic02	100	0	0	0	lbuttondown	0	1315	1	+	0	1	1.jpg	816	1	1.jpg	816	1	pic3.jpg	816	1	1.jpg	816
120116	10:50:26	1	1	5.0.5.0	2	3	picblk	npic06	100	0	0	0	lbuttondown	1	1068	1	+	0	1	1.jpg	816	1	1.jpg	816	1	pic7.jpg	816	1	1.jpg	816
120116	10:50:26	1	1	5.0.5.0	2	4	picblk	npic12	100	0	0	0	lbuttondown	1	948	1	+	0	1	pic13.jpg	816	1	1.jpg	816	1	1.jpg	816	1	1.jpg	816
120116	10:50:26	1	1	5.0.5.0	2	5	picblk	npic09	100	0	0	0	lbuttondown	1	851	1	+	0	1	1.jpg	816	1	pic10.jpg	816	1	1.jpg	816	1	1.jpg	816
120116	10:50:26	1	1	5.0.5.0	2	6	picblk	npic05	100	0	0	0	lbuttondown	1	502	1	+	0	1	1.jpg	816	1	pic6.jpg	816	1	1.jpg	816	1	1.jpg	816
120116	10:50:26	1	1	5.0.5.0	2	7	picblk	npic07	100	0	0	0	lbuttondown	1	997	1	+	0	1	1.jpg	816	1	1.jpg	816	1	1.jpg	816	1	pic8.jpg	816
120116	10:50:26	1	1	5.0.5.0	2	8	picblk	npic14	100	0	0	0	lbuttondown	1	782	1	+	0	1	1.jpg	816	1	1.jpg	816	1	pic15.jpg	816	1	1.jpg	816
120116	10:50:26	1	1	5.0.5.0	2	9	picblk	npic13	100	0	0	0	lbuttondown	1	868	1	+	0	1	1.jpg	816	1	pic14.jpg	816	1	1.jpg	816	1	1.jpg	816
120116	10:50:26	1	1	5.0.5.0	2	10	picblk	npic10	100	0	0	0	lbuttondown	1	853	1	+	0	1	1.jpg	816	1	1.jpg	816	1	pic11.jpg	816	1	1.jpg	816
120116	10:50:26	1	1	5.0.5.0	2	11	picblk	npic03	100	0	0	0	lbuttondown	1	970	1	+	0	1	1.jpg	816	1	1.jpg	816	1	1.jpg	816	1	pic4.jpg	816
120116	10:50:26	1	1	5.0.5.0	2	12	picblk	npic11	100	0	0	0	lbuttondown	1	677	1	+	0	1	1.jpg	816	1	1.jpg	816	1	1.jpg	816	1	pic12.jpg	816
120116	10:50:26	1	1	5.0.5.0	2	13	picblk	npic08	100	0	0	0	lbuttondown	1	838	1	+	0	1	pic9.jpg	816	1	1.jpg	816	1	1.jpg	816	1	1.jpg	816
120116	10:50:26	1	1	5.0.5.0	2	14	picblk	npic04	100	0	0	0	lbuttondown	1	483	1	+	0	1	pic5.jpg	816	1	1.jpg	816	1	1.jpg	816	1	1.jpg	816
120116	10:50:26	1	1	5.0.5.0	2	15	picblk	npic00	100	0	0	0	lbuttondown	0	2646	1	+	0	1	pic1.jpg	816	1	1.jpg	816	1	1.jpg	816	1	1.jpg	816
120116	11:56:13	1	1	5.0.5.0	3	1	picblk	pic10	100	0	0	0	lbuttondown	1	2220	1	+	18	1	1.jpg	816	1	pic10.jpg	816	1	1.jpg	816	1	1.jpg	816
120116	11:56:13	1	1	5.0.5.0	3	2	picblk	pic11	100	0	0	0	lbuttondown	1	1045	1	+	0	1	1.jpg	816	1	1.jpg	816	1	pic11.jpg	816	1	1.jpg	816
120116	11:56:13	1	1	5.0.5.0	3	3	picblk	pic9	100	0	0	0	lbuttondown	1	1323	1	+	0	1	pic9.jpg	816	1	1.jpg	816	1	1.jpg	816	1	1.jpg	816
120116	11:56:13	1	1	5.0.5.0	3	4	picblk	pic15	100	0	0	0	lbuttondown	1	977	1	+	0	1	1.jpg	816	1	1.jpg	816	1	pic15.jpg	816	1	1.jpg	816
120116	11:56:13	1	1	5.0.5.0	3	5	picblk	pic4	100	0	0	0	lbuttondown	1	1217	1	+	0	1	1.jpg	816	1	1.jpg	816	1	1.jpg	816	1	pic4.jpg	816
120116	11:56:13	1	1	5.0.5.0	3	6	picblk	pic6	100	0	0	0	lbuttondown	1	1233	1	+	0	1	1.jpg	816	1	pic6.jpg	816	1	1.jpg	816	1	1.jpg	816
120116	11:56:13	1	1	5.0.5.0	3	7	picblk	pic14	100	0	0	0	lbuttondown	1	542	1	+	0	1	1.jpg	816	1	pic14.jpg	816	1	1.jpg	816	1	1.jpg	816
120116	11:56:13	1	1	5.0.5.0	3	8	picblk	pic1	100	0	0	0	lbuttondown	0	4571	1	+	0	1	pic1.jpg	816	1	1.jpg	816	1	1.jpg	816	1	1.jpg	816
120116	11:56:13	1	1	5.0.5.0	3	9	picblk	pic7	100	0	0	0	lbuttondown	1	1034	1	+	0	1	1.jpg	816	1	1.jpg	816	1	pic7.jpg	816	1	1.jpg	816
120116	11:56:13	1	1	5.0.5.0	3	10	picblk	pic13	100	0	0	0	lbuttondown	1	635	1	+	0	1	pic13.jpg	816	1	1.jpg	816	1	1.jpg	816	1	1.jpg	816
120116	11:56:13	1	1	5.0.5.0	3	11	picblk	pic2	100	0	0	0	lbuttondown	0	1684	1	+	0	1	1.jpg	816	1	pic2.jpg	816	1	1.jpg	816	1	1.jpg	816
120116	11:56:13	1	1	5.0.5.0	3	12	picblk	pic3	100	0	0	0	lbuttondown	0	968	1	+	0	1	1.jpg	816	1	1.jpg	816	1	pic3.jpg	816	1	1.jpg	816
120116	11:56:13	1	1	5.0.5.0	3	13	picblk	pic8	100	0	0	0	lbuttondown	1	948	1	+	0	1	1.jpg	816	1	1.jpg	816	1	1.jpg	816	1	pic8.jpg	816
120116	11:56:13	1	1	5.0.5.0	3	14	picblk	pic5	100	0	0	0	lbuttondown	1	988	1	+	0	1	pic5.jpg	816	1	1.jpg	816	1	1.jpg	816	1	1.jpg	816
120116	11:56:13	1	1	5.0.5.0	3	15	picblk	pic12	100	0	0	0	lbuttondown	1	986	1	+	0	1	1.jpg	816	1	1.jpg	816	1	1.jpg	816	1	pic12.jpg	816
120116	12:04:17	1	1	5.0.5.0	3	1	picblk	pic4	100	0	0	0	lbuttondown	0	1458	1	+	0	1	1.jpg	816	1	1.jpg	816	1	1.jpg	816	1	pic4.jpg	816
120116	12:04:17	1	1	5.0.5.0	3	2	picblk	pic3	100	0	0	0	lbuttondown	0	1058	1	+	0	1	1.jpg	816	1	1.jpg	816	1	pic3.jpg	816	1	1.jpg	816
120116	12:04:17	1	1	5.0.5.0	3	3	picblk	pic12	100	0	0	0	lbuttondown	0	900	1	+	0	1	1.jpg	816	1	1.jpg	816	1	1.jpg	816	1	pic12.jpg	816
120116	12:04:17	1	1	5.0.5.0	3	4	picblk	pic10	100	0	0	0	lbuttondown	0	1039	1	+	0	1	1.jpg	816	1	pic10.jpg	816	1	1.jpg	816	1	1.jpg	816
120116	12:04:17	1	1	5.0.5.0	3	5	picblk	pic13	100	0	0	0	lbuttondown	1	562	1	+	0	1	pic13.jpg	816	1	1.jpg	816	1	1.jpg	816	1	1.jpg	816
120116	12:04:17	1	1	5.0.5.0	3	6	picblk	pic5	100	0	0	0	lbuttondown	1	533	1	+	0	1	pic5.jpg	816	1	1.jpg	816	1	1.jpg	816	1	1.jpg	816
120116	12:04:17	1	1	5.0.5.0	3	7	picblk	pic8	100	0	0	0	lbuttondown	0	542	1	+	0	1	1.jpg	816	1	1.jpg	816	1	1.jpg	816	1	pic8.jpg	816
120116	12:04:17	1	1	5.0.5.0	3	8	picblk	pic11	100	0	0	0	lbuttondown	0	992	1	+	0	1	1.jpg	816	1	1.jpg	816	1	pic11.jpg	816	1	1.jpg	816
120116	12:04:17	1	1	5.0.5.0	3	9	picblk	pic2	100	0	0	0	lbuttondown	0	1041	1	+	0	1	1.jpg	816	1	pic2.jpg	816	1	1.jpg	816	1	1.jpg	816
120116	12:04:17	1	1	5.0.5.0	3	10	picblk	pic9	100	0	0	0	lbuttondown	1	885	1	+	0	1	pic9.jpg	816	1	1.jpg	816	1	1.jpg	816	1	1.jpg	816
120116	12:04:17	1	1	5.0.5.0	3	11	picblk	pic1	100	0	0	0	lbuttondown	1	988	1	+	0	1	pic1.jpg	816	1	1.jpg	816	1	1.jpg	816	1	1.jpg	816
120116	12:04:17	1	1	5.0.5.0	3	12	picblk	pic7	100	0	0	0	lbuttondown	0	1804	1	+	0	1	1.jpg	816	1	1.jpg	816	1	pic7.jpg	816	1	1.jpg	816
120116	12:04:17	1	1	5.0.5.0	3	13	picblk	pic15	100	0	0	0	lbuttondown	0	1416	1	+	0	1	1.jpg	816	1	1.jpg	816	1	pic15.jpg	816	1	1.jpg	816
120116	12:04:17	1	1	5.0.5.0	3	14	picblk	pic14	100	0	0	0	lbuttondown	0	532	1	+	0	1	1.jpg	816	1	pic14.jpg	816	1	1.jpg	816	1	1.jpg	816
120116	12:04:17	1	1	5.0.5.0	3	15	picblk	pic6	100	0	0	0	lbuttondown	0	522	1	+	0	1	1.jpg	816	1	pic6.jpg	816	1	1.jpg	816	1	1.jpg	816
120116	12:06:49	1	1	5.0.5.0	3	1	picblk	pic12	100	0	0	0	lbuttondown	0	1709	1	+	0	1	1.jpg	816	1	1.jpg	816	1	1.jpg	816	1	pic12.jpg	816
120116	12:06:49	1	1	5.0.5.0	3	2	picblk	pic10	100	0	0	0	lbuttondown	0	695	1	+	0	1	1.jpg	816	1	pic10.jpg	816	1	1.jpg	816	1	1.jpg	816
120116	12:06:49	1	1	5.0.5.0	3	3	picblk	pic8	100	0	0	0	lbuttondown	0	714	1	+	0	1	1.jpg	816	1	1.jpg	816	1	1.jpg	816	1	pic8.jpg	816
120116	12:06:49	1	1	5.0.5.0	3	4	picblk	pic13	100	0	0	0	lbuttondown	1	998	1	+	0	1	pic13.jpg	816	1	1.jpg	816	1	1.jpg	816	1	1.jpg	816
120116	12:06:49	1	1	5.0.5.0	3	5	picblk	pic1	100	0	0	0	lbuttondown	0	2044	1	+	0	1	pic1.jpg	816	1	1.jpg	816	1	1.jpg	816	1	1.jpg	816
120116	12:06:49	1	1	5.0.5.0	3	6	picblk	pic6	100	0	0	0	lbuttondown	0	1229	1	+	0	1	1.jpg	816	1	pic6.jpg	816	1	1.jpg	816	1	1.jpg	816
120116	12:06:49	1	1	5.0.5.0	3	7	picblk	pic15	100	0	0	0	lbuttondown	0	858	1	+	0	1	1.jpg	816	1	1.jpg	816	1	pic15.jpg	816	1	1.jpg	816
120116	12:06:49	1	1	5.0.5.0	3	8	picblk	pic3	100	0	0	0	lbuttondown	0	603	1	+	0	1	1.jpg	816	1	1.jpg	816	1	pic3.jpg	816	1	1.jpg	816
120116	12:06:49	1	1	5.0.5.0	3	9	picblk	pic11	100	0	0	0	lbuttondown	0	575	1	+	0	1	1.jpg	816	1	1.jpg	816	1	pic11.jpg	816	1	1.jpg	816
120116	12:06:49	1	1	5.0.5.0	3	10	picblk	pic9	100	0	0	0	lbuttondown	1	1067	1	+	0	1	pic9.jpg	816	1	1.jpg	816	1	1.jpg	816	1	1.jpg	816
120116	12:06:49	1	1	5.0.5.0	3	11	picblk	pic14	100	0	0	0	lbuttondown	0	1168	1	+	0	1	1.jpg	816	1	pic14.jpg	816	1	1.jpg	816	1	1.jpg	816
120116	12:06:49	1	1	5.0.5.0	3	12	picblk	pic2	100	0	0	0	lbuttondown	0	538	1	+	0	1	1.jpg	816	1	pic2.jpg	816	1	1.jpg	816	1	1.jpg	816
120116	12:06:49	1	1	5.0.5.0	3	13	picblk	pic7	100	0	0	0	lbuttondown	0	397	1	+	0	1	1.jpg	816	1	1.jpg	816	1	pic7.jpg	816	1	1.jpg	816
120116	12:06:49	1	1	5.0.5.0	3	14	picblk	pic5	100	0	0	0	lbuttondown	1	402	1	+	0	1	pic5.jpg	816	1	1.jpg	816	1	1.jpg	816	1	1.jpg	816
120116	12:06:49	1	1	5.0.5.0	3	15	picblk	pic4	100	0	0	0	lbuttondown	0	2150	1	+	0	1	1.jpg	816	1	1.jpg	816	1	1.jpg	816	1	pic4.jpg	816
120116	12:09:29	1	1	5.0.5.0	3	1	picblk	pic14	100	0	0	0	lbuttondown	1	1633	1	+	0	1	1.jpg	816	1	pic14.jpg	816	1	1.jpg	816	1	1.jpg	816
120116	12:09:29	1	1	5.0.5.0	3	2	picblk	pic15	100	0	0	0	lbuttondown	1	905	1	+	0	1	1.jpg	816	1	1.jpg	816	1	pic15.jpg	816	1	1.jpg	816
120116	12:09:29	1	1	5.0.5.0	3	3	picblk	pic12	100	0	0	0	lbuttondown	1	861	1	+	0	1	1.jpg	816	1	1.jpg	816	1	1.jpg	816	1	pic12.jpg	816
120116	12:09:29	1	1	5.0.5.0	3	4	picblk	pic5	100	0	0	0	lbuttondown	1	816	1	+	0	1	pic5.jpg	816	1	1.jpg	816	1	1.jpg	816	1	1.jpg	816
120116	12:09:29	1	1	5.0.5.0	3	5	picblk	pic8	100	0	0	0	lbuttondown	1	909	1	+	0	1	1.jpg	816	1	1.jpg	816	1	1.jpg	816	1	pic8.jpg	816
120116	12:09:29	1	1	5.0.5.0	3	6	picblk	pic7	100	0	0	0	lbuttondown	1	1535	1	+	0	1	1.jpg	816	1	1.jpg	816	1	pic7.jpg	816	1	1.jpg	816
120116	12:09:29	1	1	5.0.5.0	3	7	picblk	pic2	100	0	0	0	lbuttondown	0	2762	1	+	0	1	1.jpg	816	1	pic2.jpg	816	1	1.jpg	816	1	1.jpg	816
120116	12:09:29	1	1	5.0.5.0	3	8	picblk	pic6	100	0	0	0	lbuttondown	1	932	1	+	0	1	1.jpg	816	1	pic6.jpg	816	1	1.jpg	816	1	1.jpg	816
120116	12:09:29	1	1	5.0.5.0	3	9	picblk	pic1	100	0	0	0	lbuttondown	0	1669	1	+	0	1	pic1.jpg	816	1	1.jpg	816	1	1.jpg	816	1	1.jpg	816
120116	12:09:29	1	1	5.0.5.0	3	10	picblk	pic10	100	0	0	0	lbuttondown	1	493	1	+	0	1	1.jpg	816	1	pic10.jpg	816	1	1.jpg	816	1	1.jpg	816
120116	12:09:29	1	1	5.0.5.0	3	11	picblk	pic4	100	0	0	0	lbuttondown	1	817	1	+	0	1	1.jpg	816	1	1.jpg	816	1	1.jpg	816	1	pic4.jpg	816
120116	12:09:29	1	1	5.0.5.0	3	12	picblk	pic3	100	0	0	0	lbuttondown	1	832	1	+	0	1	1.jpg	816	1	1.jpg	816	1	pic3.jpg	816	1	1.jpg	816
120116	12:09:29	1	1	5.0.5.0	3	13	picblk	pic9	100	0	0	0	lbuttondown	1	819	1	+	0	1	pic9.jpg	816	1	1.jpg	816	1	1.jpg	816	1	1.jpg	816
120116	12:09:29	1	1	5.0.5.0	3	14	picblk	pic11	100	0	0	0	lbuttondown	1	832	1	+	0	1	1.jpg	816	1	1.jpg	816	1	pic11.jpg	816	1	1.jpg	816
120116	12:09:29	1	1	5.0.5.0	3	15	picblk	pic13	100	0	0	0	lbuttondown	1	846	1	+	0	1	pic13.jpg	816	1	1.jpg	816	1	1.jpg	816	1	1.jpg	816
120116	12:18:37	1	1	5.0.5.0	3	1	picblk	pic8	100	0	0	0	lbuttondown	1	18794	1	+	0	1	1.jpg	816	1	1.jpg	816	1	1.jpg	816	1	pic8.jpg	816
120116	12:18:37	1	1	5.0.5.0	3	2	picblk	pic1	100	0	0	0	lbuttondown	1	3124	1	+	0	1	pic1.jpg	816	1	1.jpg	816	1	1.jpg	816	1	1.jpg	816
120116	12:18:37	1	1	5.0.5.0	3	3	picblk	pic3	100	0	0	0	lbuttondown	1	8102	1	+	0	1	1.jpg	816	1	1.jpg	816	1	pic3.jpg	816	1	1.jpg	816
120116	12:18:37	1	1	5.0.5.0	3	4	picblk	pic11	100	0	0	0	lbuttondown	1	5281	1	+	0	1	1.jpg	816	1	1.jpg	816	1	pic11.jpg	816	1	1.jpg	816
120116	12:18:37	1	1	5.0.5.0	3	5	picblk	pic6	100	0	0	0	lbuttondown	1	6353	1	+	0	1	1.jpg	816	1	pic6.jpg	816	1	1.jpg	816	1	1.jpg	816
120116	12:18:37	1	1	5.0.5.0	3	6	picblk	pic10	100	0	0	0	lbuttondown	1	4032	1	+	0	1	1.jpg	816	1	pic10.jpg	816	1	1.jpg	816	1	1.jpg	816
120116	12:18:37	1	1	5.0.5.0	3	7	picblk	pic2	100	0	0	0	lbuttondown	1	2551	1	+	0	1	1.jpg	816	1	pic2.jpg	816	1	1.jpg	816	1	1.jpg	816
120116	12:18:37	1	1	5.0.5.0	3	8	picblk	pic13	100	0	0	0	lbuttondown	1	3242	1	+	0	1	pic13.jpg	816	1	1.jpg	816	1	1.jpg	816	1	1.jpg	816
120116	12:18:37	1	1	5.0.5.0	3	9	picblk	pic5	100	0	0	0	lbuttondown	1	1300	1	+	0	1	pic5.jpg	816	1	1.jpg	816	1	1.jpg	816	1	1.jpg	816
120116	12:18:37	1	1	5.0.5.0	3	10	picblk	pic4	100	0	0	0	lbuttondown	1	2156	1	+	0	1	1.jpg	816	1	1.jpg	816	1	1.jpg	816	1	pic4.jpg	816
120116	12:18:37	1	1	5.0.5.0	3	11	picblk	pic7	100	0	0	0	lbuttondown	1	3235	1	+	0	1	1.jpg	816	1	1.jpg	816	1	pic7.jpg	816	1	1.jpg	816
120116	12:18:37	1	1	5.0.5.0	3	12	picblk	pic9	100	0	0	0	lbuttondown	1	2135	1	+	0	1	pic9.jpg	816	1	1.jpg	816	1	1.jpg	816	1	1.jpg	816
120116	12:18:37	1	1	5.0.5.0	3	13	picblk	pic14	100	0	0	0	lbuttondown	1	4290	1	+	0	1	1.jpg	816	1	pic14.jpg	816	1	1.jpg	816	1	1.jpg	816
120116	12:18:37	1	1	5.0.5.0	3	14	picblk	pic12	100	0	0	0	lbuttondown	1	1318	1	+	0	1	1.jpg	816	1	1.jpg	816	1	1.jpg	816	1	pic12.jpg	816
120116	12:18:37	1	1	5.0.5.0	3	15	picblk	pic15	100	0	0	0	lbuttondown	1	856	1	+	0	1	1.jpg	816	1	1.jpg	816	1	pic15.jpg	816	1	1.jpg	816
120116	12:22:58	1	1	5.0.5.0	3	1	picblk	pic11	100	0	0	0	lbuttondown	1	1354	1	+	0	1	1.jpg	816	1	1.jpg	816	1	pic11.jpg	816	1	1.jpg	816
120116	12:22:58	1	1	5.0.5.0	3	2	picblk	pic5	100	0	0	0	lbuttondown	1	837	1	+	0	1	pic5.jpg	816	1	1.jpg	816	1	1.jpg	816	1	1.jpg	816
120116	12:22:58	1	1	5.0.5.0	3	3	picblk	pic1	100	0	0	0	lbuttondown	0	2214	1	+	0	1	pic1.jpg	816	1	1.jpg	816	1	1.jpg	816	1	1.jpg	816
120116	12:22:58	1	1	5.0.5.0	3	4	picblk	pic2	100	0	0	0	lbuttondown	0	1658	1	+	0	1	1.jpg	816	1	pic2.jpg	816	1	1.jpg	816	1	1.jpg	816
120116	12:22:58	1	1	5.0.5.0	3	5	picblk	pic13	100	0	0	0	lbuttondown	1	771	1	+	0	1	pic13.jpg	816	1	1.jpg	816	1	1.jpg	816	1	1.jpg	816
120116	12:22:58	1	1	5.0.5.0	3	6	picblk	pic7	100	0	0	0	lbuttondown	1	886	1	+	0	1	1.jpg	816	1	1.jpg	816	1	pic7.jpg	816	1	1.jpg	816
120116	12:22:58	1	1	5.0.5.0	3	7	picblk	pic4	100	0	0	0	lbuttondown	1	833	1	+	0	1	1.jpg	816	1	1.jpg	816	1	1.jpg	816	1	pic4.jpg	816
120116	12:22:58	1	1	5.0.5.0	3	8	picblk	pic10	100	0	0	0	lbuttondown	1	714	1	+	0	1	1.jpg	816	1	pic10.jpg	816	1	1.jpg	816	1	1.jpg	816
120116	12:22:58	1	1	5.0.5.0	3	9	picblk	pic9	100	0	0	0	lbuttondown	1	798	1	+	0	1	pic9.jpg	816	1	1.jpg	816	1	1.jpg	816	1	1.jpg	816
120116	12:22:58	1	1	5.0.5.0	3	10	picblk	pic6	100	0	0	0	lbuttondown	1	879	1	+	0	1	1.jpg	816	1	pic6.jpg	816	1	1.jpg	816	1	1.jpg	816
120116	12:22:58	1	1	5.0.5.0	3	11	picblk	pic12	100	0	0	0	lbuttondown	1	737	1	+	0	1	1.jpg	816	1	1.jpg	816	1	1.jpg	816	1	pic12.jpg	816
120116	12:22:58	1	1	5.0.5.0	3	12	picblk	pic14	100	0	0	0	lbuttondown	1	667	1	+	0	1	1.jpg	816	1	pic14.jpg	816	1	1.jpg	816	1	1.jpg	816
120116	12:22:58	1	1	5.0.5.0	3	13	picblk	pic8	100	0	0	0	lbuttondown	1	766	1	+	0	1	1.jpg	816	1	1.jpg	816	1	1.jpg	816	1	pic8.jpg	816
120116	12:22:58	1	1	5.0.5.0	3	14	picblk	pic15	100	0	0	0	lbuttondown	1	732	1	+	0	1	1.jpg	816	1	1.jpg	816	1	pic15.jpg	816	1	1.jpg	816
120116	12:22:58	1	1	5.0.5.0	3	15	picblk	pic3	100	0	0	0	lbuttondown	1	708	1	+	0	1	1.jpg	816	1	1.jpg	816	1	pic3.jpg	816	1	1.jpg	816
