date	time	group	subject	build	blocknum	trialnum	blockcode	trialcode	pretrialpause	posttrialpause	windowcenter	trialduration	trialtimeout	blocktimeout	response	correct	latency	inwindow
112816	17:31:01	1	1	4.0.9.0	2	1	exerciseblk	top_left	500	0	0	0	0	0	standard_2	0	9006	0
112816	17:31:01	1	1	4.0.9.0	2	2	exerciseblk	top_right	500	0	0	0	0	0	standard_3	0	8193	0
112816	17:31:01	1	1	4.0.9.0	2	3	exerciseblk	bottom_right	500	0	0	0	0	0	standard_3	0	1189	0
112816	17:31:01	1	1	4.0.9.0	2	4	exerciseblk	bottom_left	500	0	0	0	0	0	target_3	1	1963	0
113016	08:47:48	1	1	4.0.9.0	2	1	exerciseblk	top_right	500	0	0	0	0	0	standard_1	0	38	0
113016	08:47:48	1	1	4.0.9.0	2	2	exerciseblk	bottom_right	500	0	0	0	0	0	standard_3	0	27	0
113016	08:47:48	1	1	4.0.9.0	2	3	exerciseblk	bottom_left	500	0	0	0	0	0	target_3	1	35	0
113016	08:47:48	1	1	4.0.9.0	2	4	exerciseblk	top_left	500	0	0	0	0	0	standard_4	0	40	0
113016	08:47:48	1	1	4.0.9.0	5	1	judgeblk	bottom_right	500	0	0	0	0	0	target_4	1	20	0
113016	08:47:48	1	1	4.0.9.0	5	2	judgeblk	bottom_left	500	0	0	0	0	0	target_3	1	51	0
113016	08:47:48	1	1	4.0.9.0	5	3	judgeblk	top_right	500	0	0	0	0	0	target_2	1	54	0
113016	08:47:48	1	1	4.0.9.0	5	4	judgeblk	bottom_left	500	0	0	0	0	0	standard_2	0	39	0
113016	08:47:48	1	1	4.0.9.0	5	5	judgeblk	top_right	500	0	0	0	0	0	standard_4	0	37	0
113016	08:47:48	1	1	4.0.9.0	5	6	judgeblk	top_left	500	0	0	0	0	0	target_1	1	32	0
113016	08:47:48	1	1	4.0.9.0	5	7	judgeblk	bottom_left	500	0	0	0	0	0	target_3	1	60	0
113016	08:47:48	1	1	4.0.9.0	5	8	judgeblk	bottom_right	500	0	0	0	0	0	standard_3	0	42	0
113016	08:47:48	1	1	4.0.9.0	5	9	judgeblk	top_left	500	0	0	0	0	0	standard_4	0	36	0
113016	08:47:48	1	1	4.0.9.0	5	10	judgeblk	top_right	500	0	0	0	0	0	standard_3	0	35	0
113016	08:47:48	1	1	4.0.9.0	5	11	judgeblk	top_left	500	0	0	0	0	0	target_1	1	51	0
113016	08:47:48	1	1	4.0.9.0	5	12	judgeblk	bottom_right	500	0	0	0	0	0	target_4	1	34	0
113016	08:47:48	1	1	4.0.9.0	5	13	judgeblk	bottom_left	500	0	0	0	0	0	standard_4	0	41	0
113016	08:47:48	1	1	4.0.9.0	5	14	judgeblk	bottom_right	500	0	0	0	0	0	standard_3	0	35	0
113016	08:47:48	1	1	4.0.9.0	5	15	judgeblk	top_left	500	0	0	0	0	0	target_1	1	36	0
113016	08:47:48	1	1	4.0.9.0	5	16	judgeblk	top_right	500	0	0	0	0	0	standard_1	0	36	0
