date	time	group	subject	build	blocknum	trialnum	blockcode	trialcode	pretrialpause	posttrialpause	windowcenter	trialduration	trialtimeout	blocktimeout	response	correct	latency	inwindow	stimulusnumber1	stimulusitem1	stimulusvpos1	stimulushpos1	stimulusonset1	stimulusnumber2	stimulusitem2	stimulusvpos2	stimulushpos2	stimulusonset2	stimulusnumber3	stimulusitem3	stimulusvpos3	stimulushpos3	stimulusonset3	stimulusnumber4	stimulusitem4	stimulusvpos4	stimulushpos4	stimulusonset4	stimulusnumber5	stimulusitem5	stimulusvpos5	stimulushpos5	stimulusonset5
113016	13:03:59	1	1	4.0.9.0	2	1	picblk	npic01	500	0	0	0	0	0	Ctrl+'Q'	1	88	0	1	+	50pct	50pct	0	1	N0.bmp	20	20	34983	1	N238.bmp	40	40	34983	1	N238.bmp	60	60	34983	1	N238.bmp	80	80	34983
113016	13:04:56	1	1	4.0.9.0	2	1	picblk	npic01	500	0	0	0	0	0	lbuttondown	1	4429	0	1	+	50pct	50pct	0	1	N0.bmp	20	20	3316	1	N238.bmp	40	40	3316	1	N238.bmp	60	60	3316	1	N238.bmp	80	80	3316
113016	13:17:59	1	1	4.0.9.0	2	1	picblk	npic01	500	0	0	0	0	0	lbuttondown	1	1618	0	1	+	50pct	50pct	0	1	N0.bmp	20	20	3316	1	N238.bmp	40	40	3316	1	N238.bmp	60	60	3316	1	N238.bmp	80	80	3316
113016	13:18:54	1	1	4.0.9.0	2	1	picblk	npic01	500	0	0	0	0	0	lbuttondown	1	1308	0	1	+	50pct	50pct	0	1	N0.bmp	30	30	3316	1	N238.bmp	50	30	3316	1	N238.bmp	30	50	3316	1	N238.bmp	50	50	3316
113016	13:20:37	1	1	4.0.9.0	2	1	picblk	npic01	100	0	0	0	0	0	lbuttondown	1	3447	0	1	+	50pct	50pct	0	1	N0.bmp	40	40	3316	1	N238.bmp	60	40	3316	1	N238.bmp	40	60	3316	1	N238.bmp	60	60	3316
113016	13:22:11	1	1	4.0.9.0	2	1	picblk	npic01	100	0	0	0	0	0	lbuttondown	1	1910	0	1	+	50pct	50pct	0	1	N0.bmp	40	40	316	1	N238.bmp	60	40	316	1	N238.bmp	40	60	316	1	N238.bmp	60	60	316
113016	13:22:26	1	1	4.0.9.0	2	1	picblk	npic01	100	0	0	0	0	0	lbuttondown	1	963	0	1	+	50pct	50pct	0	1	N0.bmp	40	40	816	1	N238.bmp	60	40	816	1	N238.bmp	40	60	816	1	N238.bmp	60	60	816
113016	13:23:49	1	1	4.0.9.0	2	1	picblk	npic01	100	0	0	0	0	0	lbuttondown	1	1553	0	1	+	50pct	50pct	0	1	N0.bmp	30	30	816	1	N238.bmp	60	30	816	1	N238.bmp	30	60	816	1	N238.bmp	60	60	816
113016	13:24:53	1	1	4.0.9.0	2	1	picblk	npic01	100	0	0	0	0	0	lbuttondown	1	4850	0	1	+	50pct	50pct	0	1	N0.bmp	20	30	816	1	N238.bmp	50	30	816	1	N238.bmp	20	60	816	1	N238.bmp	50	60	816
113016	13:27:28	1	1	4.0.9.0	2	1	picblk	npic01	100	0	0	0	0	0	lbuttondown	1	1624	0	1	+	50pct	50pct	0	1	N0.bmp	20	30	816	1	N238.bmp	50	30	816	1	N238.bmp	20	60	816	1	N238.bmp	50	60	816	1	N0.bmp	35	45	816
113016	13:28:12	1	1	4.0.9.0	2	1	picblk	npic01	100	0	0	0	0	0	lbuttondown	1	1901	0	1	+	50pct	50pct	0	1	N0.bmp	22	30	816	1	N238.bmp	52	30	816	1	N238.bmp	22	60	816	1	N238.bmp	52	60	816	1	N0.bmp	35	45	816
113016	13:55:31	1	1	4.0.9.0	2	1	picblk	npic04	100	0	0	0	0	0	lbuttondown	1	836	0	1	+	50pct	50pct	0	1	N64.bmp	22	30	816	1	N240.bmp	52	30	816	1	N240.bmp	22	60	816	1	N240.bmp	52	60	816	1	N0.bmp	35	45	816
113016	13:55:31	1	1	4.0.9.0	2	2	picblk	npic02	100	0	0	0	0	0	lbuttondown	0	992	0	1	+	50pct	50pct	0	1	N240.bmp	22	30	816	1	N240.bmp	52	30	816	1	N32.bmp	22	60	816	1	N240.bmp	52	60	816	1	N0.bmp	35	45	816
113016	13:55:31	1	1	4.0.9.0	2	3	picblk	npic12	100	0	0	0	0	0	lbuttondown	0	833	0	1	+	50pct	50pct	0	1	N192.bmp	52	60	816	1	N240.bmp	52	30	816	1	N240.bmp	22	60	816	1	N240.bmp	52	60	816	1	N0.bmp	35	45	816
113016	13:55:31	1	1	4.0.9.0	2	4	picblk	npic06	100	0	0	0	0	0	lbuttondown	1	807	0	1	+	50pct	50pct	0	1	N240.bmp	22	30	816	1	N240.bmp	52	30	816	1	N96.bmp	22	60	816	1	N240.bmp	52	60	816	1	N0.bmp	35	45	816
113016	13:55:31	1	1	4.0.9.0	2	5	picblk	npic10	100	0	0	0	0	0	lbuttondown	0	835	0	1	+	50pct	50pct	0	1	N240.bmp	22	30	816	1	N240.bmp	52	30	816	1	N160.bmp	52	30	816	1	N240.bmp	52	60	816	1	N0.bmp	35	45	816
113016	13:55:31	1	1	4.0.9.0	2	6	picblk	npic08	100	0	0	0	0	0	lbuttondown	0	791	0	1	+	50pct	50pct	0	1	N128.bmp	52	60	816	1	N240.bmp	52	30	816	1	N240.bmp	22	60	816	1	N240.bmp	52	60	816	1	N0.bmp	35	45	816
113016	13:55:31	1	1	4.0.9.0	2	7	picblk	npic01	100	0	0	0	0	0	lbuttondown	1	798	0	1	+	50pct	50pct	0	1	N240.bmp	22	30	816	1	N16.bmp	52	30	816	1	N240.bmp	22	60	816	1	N240.bmp	52	60	816	1	N0.bmp	35	45	816
113016	13:55:31	1	1	4.0.9.0	2	8	picblk	npic13	100	0	0	0	0	0	lbuttondown	0	729	0	1	+	50pct	50pct	0	1	N240.bmp	22	30	816	1	N208.bmp	22	30	816	1	N240.bmp	22	60	816	1	N240.bmp	52	60	816	1	N0.bmp	35	45	816
113016	13:55:31	1	1	4.0.9.0	2	9	picblk	npic00	100	0	0	0	0	0	lbuttondown	1	700	0	1	+	50pct	50pct	0	1	N0.bmp	22	30	816	1	N240.bmp	52	30	816	1	N240.bmp	22	60	816	1	N240.bmp	52	60	816	1	N0.bmp	35	45	816
113016	13:55:31	1	1	4.0.9.0	2	10	picblk	npic07	100	0	0	0	0	0	lbuttondown	0	880	0	1	+	50pct	50pct	0	1	N240.bmp	22	30	816	1	N240.bmp	52	30	816	1	N240.bmp	22	60	816	1	N112.bmp	52	30	816	1	N0.bmp	35	45	816
113016	13:55:31	1	1	4.0.9.0	2	11	picblk	npic05	100	0	0	0	0	0	lbuttondown	1	838	0	1	+	50pct	50pct	0	1	N240.bmp	22	30	816	1	N80.bmp	52	30	816	1	N240.bmp	22	60	816	1	N240.bmp	52	60	816	1	N0.bmp	35	45	816
113016	13:55:31	1	1	4.0.9.0	2	12	picblk	npic14	100	0	0	0	0	0	lbuttondown	0	753	0	1	+	50pct	50pct	0	1	N240.bmp	22	30	816	1	N240.bmp	52	30	816	1	N224.bmp	22	30	816	1	N240.bmp	52	60	816	1	N0.bmp	35	45	816
113016	13:55:31	1	1	4.0.9.0	2	13	picblk	npic11	100	0	0	0	0	0	lbuttondown	0	835	0	1	+	50pct	50pct	0	1	N240.bmp	22	30	816	1	N240.bmp	52	30	816	1	N240.bmp	22	60	816	1	N176.bmp	22	60	816	1	N0.bmp	35	45	816
113016	13:55:31	1	1	4.0.9.0	2	14	picblk	npic09	100	0	0	0	0	0	lbuttondown	0	728	0	1	+	50pct	50pct	0	1	N240.bmp	22	30	816	1	N144.bmp	22	30	816	1	N240.bmp	22	60	816	1	N240.bmp	52	60	816	1	N0.bmp	35	45	816
113016	13:55:31	1	1	4.0.9.0	2	15	picblk	npic03	100	0	0	0	0	0	lbuttondown	1	760	0	1	+	50pct	50pct	0	1	N240.bmp	22	30	816	1	N240.bmp	52	30	816	1	N240.bmp	22	60	816	1	N48.bmp	52	60	816	1	N0.bmp	35	45	816
113016	13:56:53	1	1	4.0.9.0	2	1	picblk	npic11	100	0	0	0	0	0	lbuttondown	1	4512	0	1	+	50pct	50pct	0	1	N240.bmp	22	30	816	1	N240.bmp	52	30	816	1	N240.bmp	22	60	816	1	N176.bmp	22	60	816	1	N0.bmp	35	45	816
113016	13:56:53	1	1	4.0.9.0	2	2	picblk	npic02	100	0	0	0	0	0	lbuttondown	1	814	0	1	+	50pct	50pct	0	1	N240.bmp	22	30	816	1	N240.bmp	52	30	816	1	N32.bmp	22	60	816	1	N240.bmp	52	60	816	1	N0.bmp	35	45	816
113016	13:56:53	1	1	4.0.9.0	2	3	picblk	npic04	100	0	0	0	0	0	lbuttondown	1	732	0	1	+	50pct	50pct	0	1	N64.bmp	22	30	816	1	N240.bmp	52	30	816	1	N240.bmp	22	60	816	1	N240.bmp	52	60	816	1	N0.bmp	35	45	816
113016	13:56:53	1	1	4.0.9.0	2	4	picblk	npic05	100	0	0	0	0	0	lbuttondown	1	803	0	1	+	50pct	50pct	0	1	N240.bmp	22	30	816	1	N80.bmp	52	30	816	1	N240.bmp	22	60	816	1	N240.bmp	52	60	816	1	N0.bmp	35	45	816
113016	13:56:53	1	1	4.0.9.0	2	5	picblk	npic07	100	0	0	0	0	0	lbuttondown	1	1092	0	1	+	50pct	50pct	0	1	N240.bmp	22	30	816	1	N240.bmp	52	30	816	1	N240.bmp	22	60	816	1	N112.bmp	52	30	816	1	N0.bmp	35	45	816
113016	13:56:53	1	1	4.0.9.0	2	6	picblk	npic12	100	0	0	0	0	0	lbuttondown	0	1857	0	1	+	50pct	50pct	0	1	N192.bmp	52	60	816	1	N240.bmp	52	30	816	1	N240.bmp	22	60	816	1	N240.bmp	52	60	816	1	N0.bmp	35	45	816
113016	13:56:53	1	1	4.0.9.0	2	7	picblk	npic14	100	0	0	0	0	0	lbuttondown	0	766	0	1	+	50pct	50pct	0	1	N240.bmp	22	30	816	1	N240.bmp	52	30	816	1	N224.bmp	22	30	816	1	N240.bmp	52	60	816	1	N0.bmp	35	45	816
113016	13:56:53	1	1	4.0.9.0	2	8	picblk	npic01	100	0	0	0	0	0	lbuttondown	1	759	0	1	+	50pct	50pct	0	1	N240.bmp	22	30	816	1	N16.bmp	52	30	816	1	N240.bmp	22	60	816	1	N240.bmp	52	60	816	1	N0.bmp	35	45	816
113016	13:56:53	1	1	4.0.9.0	2	9	picblk	npic03	100	0	0	0	0	0	lbuttondown	1	773	0	1	+	50pct	50pct	0	1	N240.bmp	22	30	816	1	N240.bmp	52	30	816	1	N240.bmp	22	60	816	1	N48.bmp	52	60	816	1	N0.bmp	35	45	816
113016	13:56:53	1	1	4.0.9.0	2	10	picblk	npic06	100	0	0	0	0	0	lbuttondown	1	1053	0	1	+	50pct	50pct	0	1	N240.bmp	22	30	816	1	N240.bmp	52	30	816	1	N96.bmp	22	60	816	1	N240.bmp	52	60	816	1	N0.bmp	35	45	816
113016	13:56:53	1	1	4.0.9.0	2	11	picblk	npic00	100	0	0	0	0	0	lbuttondown	1	884	0	1	+	50pct	50pct	0	1	N0.bmp	22	30	816	1	N240.bmp	52	30	816	1	N240.bmp	22	60	816	1	N240.bmp	52	60	816	1	N0.bmp	35	45	816
113016	13:56:53	1	1	4.0.9.0	2	12	picblk	npic09	100	0	0	0	0	0	lbuttondown	1	1193	0	1	+	50pct	50pct	0	1	N240.bmp	22	30	816	1	N144.bmp	22	30	816	1	N240.bmp	22	60	816	1	N240.bmp	52	60	816	1	N0.bmp	35	45	816
113016	13:56:53	1	1	4.0.9.0	2	13	picblk	npic10	100	0	0	0	0	0	lbuttondown	1	976	0	1	+	50pct	50pct	0	1	N240.bmp	22	30	816	1	N240.bmp	52	30	816	1	N160.bmp	52	30	816	1	N240.bmp	52	60	816	1	N0.bmp	35	45	816
113016	13:56:53	1	1	4.0.9.0	2	14	picblk	npic08	100	0	0	0	0	0	lbuttondown	0	2604	0	1	+	50pct	50pct	0	1	N128.bmp	52	60	816	1	N240.bmp	52	30	816	1	N240.bmp	22	60	816	1	N240.bmp	52	60	816	1	N0.bmp	35	45	816
113016	13:56:53	1	1	4.0.9.0	2	15	picblk	npic13	100	0	0	0	0	0	lbuttondown	0	795	0	1	+	50pct	50pct	0	1	N240.bmp	22	30	816	1	N208.bmp	22	30	816	1	N240.bmp	22	60	816	1	N240.bmp	52	60	816	1	N0.bmp	35	45	816
113016	13:59:21	1	1	4.0.9.0	2	1	picblk	npic00	100	0	0	0	0	0	lbuttondown	1	1618	0	1	+	50pct	50pct	0	1	N0.bmp	22	30	816	1	N240.bmp	52	30	816	1	N240.bmp	22	60	816	1	N240.bmp	52	60	816	1	N0.bmp	35	45	816
113016	13:59:21	1	1	4.0.9.0	2	2	picblk	npic01	100	0	0	0	0	0	lbuttondown	1	1000	0	1	+	50pct	50pct	0	1	N240.bmp	22	30	816	1	N16.bmp	52	30	816	1	N240.bmp	22	60	816	1	N240.bmp	52	60	816	1	N0.bmp	35	45	816
113016	13:59:21	1	1	4.0.9.0	2	3	picblk	npic10	100	0	0	0	0	0	lbuttondown	1	4734	0	1	+	50pct	50pct	0	1	N240.bmp	22	30	816	1	N240.bmp	52	30	816	1	N160.bmp	52	30	816	1	N240.bmp	52	60	816	1	N0.bmp	35	45	816
113016	13:59:21	1	1	4.0.9.0	2	4	picblk	npic12	100	0	0	0	0	0	lbuttondown	1	1307	0	1	+	50pct	50pct	0	1	N192.bmp	52	60	816	1	N240.bmp	52	30	816	1	N240.bmp	22	60	816	1	N240.bmp	52	60	816	1	N0.bmp	35	45	816
113016	13:59:21	1	1	4.0.9.0	2	5	picblk	npic14	100	0	0	0	0	0	lbuttondown	0	1770	0	1	+	50pct	50pct	0	1	N240.bmp	22	30	816	1	N240.bmp	52	30	816	1	N224.bmp	22	30	816	1	N240.bmp	52	60	816	1	N0.bmp	35	45	816
113016	13:59:21	1	1	4.0.9.0	2	6	picblk	npic04	100	0	0	0	0	0	lbuttondown	1	770	0	1	+	50pct	50pct	0	1	N64.bmp	22	30	816	1	N240.bmp	52	30	816	1	N240.bmp	22	60	816	1	N240.bmp	52	60	816	1	N0.bmp	35	45	816
113016	13:59:21	1	1	4.0.9.0	2	7	picblk	npic08	100	0	0	0	0	0	lbuttondown	1	2295	0	1	+	50pct	50pct	0	1	N128.bmp	52	60	816	1	N240.bmp	52	30	816	1	N240.bmp	22	60	816	1	N240.bmp	52	60	816	1	N0.bmp	35	45	816
113016	13:59:21	1	1	4.0.9.0	2	8	picblk	npic09	100	0	0	0	0	0	lbuttondown	1	896	0	1	+	50pct	50pct	0	1	N240.bmp	22	30	816	1	N144.bmp	22	30	816	1	N240.bmp	22	60	816	1	N240.bmp	52	60	816	1	N0.bmp	35	45	816
113016	13:59:21	1	1	4.0.9.0	2	9	picblk	npic03	100	0	0	0	0	0	lbuttondown	1	741	0	1	+	50pct	50pct	0	1	N240.bmp	22	30	816	1	N240.bmp	52	30	816	1	N240.bmp	22	60	816	1	N48.bmp	52	60	816	1	N0.bmp	35	45	816
113016	13:59:21	1	1	4.0.9.0	2	10	picblk	npic07	100	0	0	0	0	0	lbuttondown	1	862	0	1	+	50pct	50pct	0	1	N240.bmp	22	30	816	1	N240.bmp	52	30	816	1	N240.bmp	22	60	816	1	N112.bmp	52	30	816	1	N0.bmp	35	45	816
113016	13:59:21	1	1	4.0.9.0	2	11	picblk	npic11	100	0	0	0	0	0	lbuttondown	1	1369	0	1	+	50pct	50pct	0	1	N240.bmp	22	30	816	1	N240.bmp	52	30	816	1	N240.bmp	22	60	816	1	N176.bmp	22	60	816	1	N0.bmp	35	45	816
113016	13:59:21	1	1	4.0.9.0	2	12	picblk	npic02	100	0	0	0	0	0	lbuttondown	1	787	0	1	+	50pct	50pct	0	1	N240.bmp	22	30	816	1	N240.bmp	52	30	816	1	N32.bmp	22	60	816	1	N240.bmp	52	60	816	1	N0.bmp	35	45	816
113016	13:59:21	1	1	4.0.9.0	2	13	picblk	npic05	100	0	0	0	0	0	lbuttondown	1	903	0	1	+	50pct	50pct	0	1	N240.bmp	22	30	816	1	N80.bmp	52	30	816	1	N240.bmp	22	60	816	1	N240.bmp	52	60	816	1	N0.bmp	35	45	816
113016	13:59:21	1	1	4.0.9.0	2	14	picblk	npic06	100	0	0	0	0	0	lbuttondown	1	1126	0	1	+	50pct	50pct	0	1	N240.bmp	22	30	816	1	N240.bmp	52	30	816	1	N96.bmp	22	60	816	1	N240.bmp	52	60	816	1	N0.bmp	35	45	816
113016	13:59:21	1	1	4.0.9.0	2	15	picblk	npic13	100	0	0	0	0	0	lbuttondown	0	2350	0	1	+	50pct	50pct	0	1	N240.bmp	22	30	816	1	N208.bmp	22	30	816	1	N240.bmp	22	60	816	1	N240.bmp	52	60	816	1	N0.bmp	35	45	816
113016	14:02:09	1	1	4.0.9.0	2	1	picblk	npic13	100	0	0	0	0	0	lbuttondown	1	1874	0	1	+	50pct	50pct	0	1	N240.bmp	22	30	817	1	N208.bmp	52	30	817	1	N240.bmp	22	60	817	1	N240.bmp	52	60	817	1	N0.bmp	35	45	817
113016	14:02:09	1	1	4.0.9.0	2	2	picblk	npic10	100	0	0	0	0	0	lbuttondown	1	1760	0	1	+	50pct	50pct	0	1	N240.bmp	22	30	816	1	N240.bmp	52	30	816	1	N160.bmp	22	60	816	1	N240.bmp	52	60	816	1	N0.bmp	35	45	816
113016	14:02:09	1	1	4.0.9.0	2	3	picblk	npic04	100	0	0	0	0	0	lbuttondown	1	739	0	1	+	50pct	50pct	0	1	N64.bmp	22	30	819	1	N240.bmp	52	30	819	1	N240.bmp	22	60	819	1	N240.bmp	52	60	819	1	N0.bmp	35	45	819
113016	14:02:09	1	1	4.0.9.0	2	4	picblk	npic14	100	0	0	0	0	0	lbuttondown	1	4071	0	1	+	50pct	50pct	0	1	N240.bmp	22	30	821	1	N240.bmp	52	30	821	1	N224.bmp	22	60	821	1	N240.bmp	52	60	821	1	N0.bmp	35	45	821
113016	14:02:09	1	1	4.0.9.0	2	5	picblk	npic06	100	0	0	0	0	0	lbuttondown	1	813	0	1	+	50pct	50pct	0	1	N240.bmp	22	30	816	1	N240.bmp	52	30	816	1	N96.bmp	22	60	816	1	N240.bmp	52	60	816	1	N0.bmp	35	45	816
113016	14:02:09	1	1	4.0.9.0	2	6	picblk	npic00	100	0	0	0	0	0	lbuttondown	1	930	0	1	+	50pct	50pct	0	1	N0.bmp	22	30	816	1	N240.bmp	52	30	816	1	N240.bmp	22	60	816	1	N240.bmp	52	60	816	1	N0.bmp	35	45	816
113016	14:02:09	1	1	4.0.9.0	2	7	picblk	npic11	100	0	0	0	0	0	lbuttondown	1	1453	0	1	+	50pct	50pct	0	1	N240.bmp	22	30	816	1	N240.bmp	52	30	816	1	N240.bmp	22	60	816	1	N176.bmp	52	60	816	1	N0.bmp	35	45	816
113016	14:02:09	1	1	4.0.9.0	2	8	picblk	npic02	100	0	0	0	0	0	lbuttondown	0	799	0	1	+	50pct	50pct	0	1	N240.bmp	22	30	820	1	N240.bmp	52	30	820	1	N32.bmp	22	60	820	1	N240.bmp	52	60	820	1	N0.bmp	35	45	820
113016	14:02:09	1	1	4.0.9.0	2	9	picblk	npic07	100	0	0	0	0	0	lbuttondown	0	1472	0	1	+	50pct	50pct	5	1	N240.bmp	22	30	816	1	N240.bmp	52	30	816	1	N240.bmp	22	60	816	1	N112.bmp	52	60	816	1	N0.bmp	35	45	816
113016	14:02:09	1	1	4.0.9.0	2	10	picblk	npic12	100	0	0	0	0	0	lbuttondown	0	527	0	1	+	50pct	50pct	2	1	N192.bmp	22	30	816	1	N240.bmp	52	30	816	1	N240.bmp	22	60	816	1	N240.bmp	52	60	816	1	N0.bmp	35	45	816
113016	14:02:09	1	1	4.0.9.0	2	11	picblk	npic03	100	0	0	0	0	0	lbuttondown	1	797	0	1	+	50pct	50pct	0	1	N240.bmp	22	30	816	1	N240.bmp	52	30	816	1	N240.bmp	22	60	816	1	N48.bmp	52	60	816	1	N0.bmp	35	45	816
113016	14:02:09	1	1	4.0.9.0	2	12	picblk	npic08	100	0	0	0	0	0	lbuttondown	1	645	0	1	+	50pct	50pct	0	1	N128.bmp	22	30	816	1	N240.bmp	52	30	816	1	N240.bmp	22	60	816	1	N240.bmp	52	60	816	1	N0.bmp	35	45	816
113016	14:02:09	1	1	4.0.9.0	2	13	picblk	npic09	100	0	0	0	0	0	lbuttondown	1	1123	0	1	+	50pct	50pct	0	1	N240.bmp	22	30	821	1	N144.bmp	52	30	821	1	N240.bmp	22	60	821	1	N240.bmp	52	60	821	1	N0.bmp	35	45	821
113016	14:02:09	1	1	4.0.9.0	2	14	picblk	npic05	100	0	0	0	0	0	lbuttondown	1	956	0	1	+	50pct	50pct	0	1	N240.bmp	22	30	816	1	N80.bmp	52	30	816	1	N240.bmp	22	60	816	1	N240.bmp	52	60	816	1	N0.bmp	35	45	816
113016	14:02:09	1	1	4.0.9.0	2	15	picblk	npic01	100	0	0	0	0	0	lbuttondown	1	873	0	1	+	50pct	50pct	2	1	N240.bmp	22	30	816	1	N16.bmp	52	30	816	1	N240.bmp	22	60	816	1	N240.bmp	52	60	816	1	N0.bmp	35	45	816
113016	14:03:56	1	1	4.0.9.0	2	1	picblk	npic14	100	0	0	0	0	0	lbuttondown	1	1085	0	1	+	50pct	50pct	0	1	N240.bmp	22	30	816	1	N240.bmp	52	30	816	1	N224.bmp	22	60	816	1	N240.bmp	52	60	816	1	N0.bmp	35	45	816
113016	14:03:56	1	1	4.0.9.0	2	2	picblk	npic08	100	0	0	0	0	0	lbuttondown	1	761	0	1	+	50pct	50pct	0	1	N128.bmp	22	30	816	1	N240.bmp	52	30	816	1	N240.bmp	22	60	816	1	N240.bmp	52	60	816	1	N0.bmp	35	45	816
113016	14:03:56	1	1	4.0.9.0	2	3	picblk	npic11	100	0	0	0	0	0	lbuttondown	1	926	0	1	+	50pct	50pct	0	1	N240.bmp	22	30	816	1	N240.bmp	52	30	816	1	N240.bmp	22	60	816	1	N176.bmp	52	60	816	1	N0.bmp	35	45	816
113016	14:03:56	1	1	4.0.9.0	2	4	picblk	npic01	100	0	0	0	0	0	lbuttondown	1	804	0	1	+	50pct	50pct	4	1	N240.bmp	22	30	816	1	N16.bmp	52	30	816	1	N240.bmp	22	60	816	1	N240.bmp	52	60	816	1	N0.bmp	35	45	816
113016	14:03:56	1	1	4.0.9.0	2	5	picblk	npic05	100	0	0	0	0	0	lbuttondown	1	812	0	1	+	50pct	50pct	0	1	N240.bmp	22	30	816	1	N80.bmp	52	30	816	1	N240.bmp	22	60	816	1	N240.bmp	52	60	816	1	N0.bmp	35	45	816
113016	14:03:56	1	1	4.0.9.0	2	6	picblk	npic03	100	0	0	0	0	0	lbuttondown	1	781	0	1	+	50pct	50pct	0	1	N240.bmp	22	30	816	1	N240.bmp	52	30	816	1	N240.bmp	22	60	816	1	N48.bmp	52	60	816	1	N0.bmp	35	45	816
113016	14:03:56	1	1	4.0.9.0	2	7	picblk	npic13	100	0	0	0	0	0	lbuttondown	1	2807	0	1	+	50pct	50pct	0	1	N240.bmp	22	30	816	1	N208.bmp	52	30	816	1	N240.bmp	22	60	816	1	N240.bmp	52	60	816	1	N0.bmp	35	45	816
113016	14:03:56	1	1	4.0.9.0	2	8	picblk	npic06	100	0	0	0	0	0	lbuttondown	1	796	0	1	+	50pct	50pct	0	1	N240.bmp	22	30	816	1	N240.bmp	52	30	816	1	N96.bmp	22	60	816	1	N240.bmp	52	60	816	1	N0.bmp	35	45	816
113016	14:03:56	1	1	4.0.9.0	2	9	picblk	npic12	100	0	0	0	0	0	lbuttondown	1	1212	0	1	+	50pct	50pct	0	1	N192.bmp	22	30	816	1	N240.bmp	52	30	816	1	N240.bmp	22	60	816	1	N240.bmp	52	60	816	1	N0.bmp	35	45	816
113016	14:03:56	1	1	4.0.9.0	2	10	picblk	npic10	100	0	0	0	0	0	lbuttondown	1	826	0	1	+	50pct	50pct	0	1	N240.bmp	22	30	816	1	N240.bmp	52	30	816	1	N160.bmp	22	60	816	1	N240.bmp	52	60	816	1	N0.bmp	35	45	816
113016	14:03:56	1	1	4.0.9.0	2	11	picblk	npic02	100	0	0	0	0	0	lbuttondown	1	811	0	1	+	50pct	50pct	0	1	N240.bmp	22	30	816	1	N240.bmp	52	30	816	1	N32.bmp	22	60	816	1	N240.bmp	52	60	816	1	N0.bmp	35	45	816
113016	14:03:56	1	1	4.0.9.0	2	12	picblk	npic04	100	0	0	0	0	0	lbuttondown	1	889	0	1	+	50pct	50pct	0	1	N64.bmp	22	30	816	1	N240.bmp	52	30	816	1	N240.bmp	22	60	816	1	N240.bmp	52	60	816	1	N0.bmp	35	45	816
113016	14:03:56	1	1	4.0.9.0	2	13	picblk	npic07	100	0	0	0	0	0	lbuttondown	1	798	0	1	+	50pct	50pct	0	1	N240.bmp	22	30	816	1	N240.bmp	52	30	816	1	N240.bmp	22	60	816	1	N112.bmp	52	60	816	1	N0.bmp	35	45	816
113016	14:03:56	1	1	4.0.9.0	2	14	picblk	npic00	100	0	0	0	0	0	lbuttondown	1	1016	0	1	+	50pct	50pct	0	1	N0.bmp	22	30	816	1	N240.bmp	52	30	816	1	N240.bmp	22	60	816	1	N240.bmp	52	60	816	1	N0.bmp	35	45	816
113016	14:03:56	1	1	4.0.9.0	2	15	picblk	npic09	100	0	0	0	0	0	lbuttondown	1	1028	0	1	+	50pct	50pct	0	1	N240.bmp	22	30	816	1	N144.bmp	52	30	816	1	N240.bmp	22	60	816	1	N240.bmp	52	60	816	1	N0.bmp	35	45	816
113016	14:08:04	1	1	4.0.9.0	2	1	picblk	npic08	100	0	0	0	0	0	lbuttondown	1	1453	0	1	+	50pct	50pct	0	1	N128.bmp	22	30	816	1	N240.bmp	52	30	816	1	N240.bmp	22	60	816	1	N240.bmp	52	60	816	1	N0.bmp	35	45	816
113016	14:08:04	1	1	4.0.9.0	2	2	picblk	npic03	100	0	0	0	0	0	lbuttondown	1	998	0	1	+	50pct	50pct	0	1	N240.bmp	22	30	816	1	N240.bmp	52	30	816	1	N240.bmp	22	60	816	1	N48.bmp	52	60	816	1	N0.bmp	35	45	816
113016	14:08:04	1	1	4.0.9.0	2	3	picblk	npic05	100	0	0	0	0	0	lbuttondown	1	851	0	1	+	50pct	50pct	0	1	N240.bmp	22	30	816	1	N80.bmp	52	30	816	1	N240.bmp	22	60	816	1	N240.bmp	52	60	816	1	N0.bmp	35	45	816
113016	14:08:04	1	1	4.0.9.0	2	4	picblk	npic07	100	0	0	0	0	0	lbuttondown	1	800	0	1	+	50pct	50pct	0	1	N240.bmp	22	30	816	1	N240.bmp	52	30	816	1	N240.bmp	22	60	816	1	N112.bmp	52	60	816	1	N0.bmp	35	45	816
113016	14:08:04	1	1	4.0.9.0	2	5	picblk	npic01	100	0	0	0	0	0	lbuttondown	1	819	0	1	+	50pct	50pct	0	1	N240.bmp	22	30	816	1	N16.bmp	52	30	816	1	N240.bmp	22	60	816	1	N240.bmp	52	60	816	1	N0.bmp	35	45	816
113016	14:08:04	1	1	4.0.9.0	2	6	picblk	npic09	100	0	0	0	0	0	lbuttondown	1	999	0	1	+	50pct	50pct	0	1	N240.bmp	22	30	816	1	N144.bmp	52	30	816	1	N240.bmp	22	60	816	1	N240.bmp	52	60	816	1	N0.bmp	35	45	816
113016	14:08:04	1	1	4.0.9.0	2	7	picblk	npic10	100	0	0	0	0	0	lbuttondown	1	842	0	1	+	50pct	50pct	0	1	N240.bmp	22	30	816	1	N240.bmp	52	30	816	1	N160.bmp	22	60	816	1	N240.bmp	52	60	816	1	N0.bmp	35	45	816
113016	14:08:04	1	1	4.0.9.0	2	8	picblk	npic12	100	0	0	0	0	0	lbuttondown	1	2339	0	1	+	50pct	50pct	0	1	N192.bmp	22	30	816	1	N240.bmp	52	30	816	1	N240.bmp	22	60	816	1	N240.bmp	52	60	816	1	N0.bmp	35	45	816
113016	14:08:04	1	1	4.0.9.0	2	9	picblk	npic00	100	0	0	0	0	0	lbuttondown	0	1971	0	1	+	50pct	50pct	0	1	N0.bmp	22	30	816	1	N240.bmp	52	30	816	1	N240.bmp	22	60	816	1	N240.bmp	52	60	816	1	N0.bmp	35	45	816
113016	14:08:04	1	1	4.0.9.0	2	10	picblk	npic13	100	0	0	0	0	0	lbuttondown	1	1557	0	1	+	50pct	50pct	0	1	N240.bmp	22	30	816	1	N208.bmp	52	30	816	1	N240.bmp	22	60	816	1	N240.bmp	52	60	816	1	N0.bmp	35	45	816
113016	14:08:04	1	1	4.0.9.0	2	11	picblk	npic04	100	0	0	0	0	0	lbuttondown	1	783	0	1	+	50pct	50pct	0	1	N64.bmp	22	30	816	1	N240.bmp	52	30	816	1	N240.bmp	22	60	816	1	N240.bmp	52	60	816	1	N0.bmp	35	45	816
113016	14:08:04	1	1	4.0.9.0	2	12	picblk	npic11	100	0	0	0	0	0	lbuttondown	1	1139	0	1	+	50pct	50pct	0	1	N240.bmp	22	30	816	1	N240.bmp	52	30	816	1	N240.bmp	22	60	816	1	N176.bmp	52	60	816	1	N0.bmp	35	45	816
113016	14:08:04	1	1	4.0.9.0	2	13	picblk	npic14	100	0	0	0	0	0	lbuttondown	1	1424	0	1	+	50pct	50pct	0	1	N240.bmp	22	30	816	1	N240.bmp	52	30	816	1	N224.bmp	22	60	816	1	N240.bmp	52	60	816	1	N0.bmp	35	45	816
113016	14:08:04	1	1	4.0.9.0	2	14	picblk	npic02	100	0	0	0	0	0	lbuttondown	1	745	0	1	+	50pct	50pct	0	1	N240.bmp	22	30	816	1	N240.bmp	52	30	816	1	N32.bmp	22	60	816	1	N240.bmp	52	60	816	1	N0.bmp	35	45	816
113016	14:08:04	1	1	4.0.9.0	2	15	picblk	npic06	100	0	0	0	0	0	lbuttondown	1	844	0	1	+	50pct	50pct	0	1	N240.bmp	22	30	816	1	N240.bmp	52	30	816	1	N96.bmp	22	60	816	1	N240.bmp	52	60	816	1	N0.bmp	35	45	816
113016	15:29:50	1	1	4.0.9.0	2	1	picblk	npic13	100	0	0	0	0	0	lbuttondown	0	1941	0	1	+	50pct	50pct	0	1	N240.bmp	22	30	816	1	N208.bmp	52	30	816	1	N240.bmp	22	60	816	1	N240.bmp	52	60	816	1	N0.bmp	35	45	816
113016	15:29:50	1	1	4.0.9.0	2	2	picblk	npic12	100	0	0	0	0	0	lbuttondown	1	1311	0	1	+	50pct	50pct	0	1	N192.bmp	22	30	816	1	N240.bmp	52	30	816	1	N240.bmp	22	60	816	1	N240.bmp	52	60	816	1	N0.bmp	35	45	816
113016	15:29:50	1	1	4.0.9.0	2	3	picblk	npic06	100	0	0	0	0	0	lbuttondown	1	918	0	1	+	50pct	50pct	0	1	N240.bmp	22	30	816	1	N240.bmp	52	30	816	1	N96.bmp	22	60	816	1	N240.bmp	52	60	816	1	N0.bmp	35	45	816
113016	15:29:50	1	1	4.0.9.0	2	4	picblk	npic10	100	0	0	0	0	0	lbuttondown	1	1551	0	1	+	50pct	50pct	0	1	N240.bmp	22	30	816	1	N240.bmp	52	30	816	1	N160.bmp	22	60	816	1	N240.bmp	52	60	816	1	N0.bmp	35	45	816
113016	15:29:50	1	1	4.0.9.0	2	5	picblk	npic08	100	0	0	0	0	0	lbuttondown	1	803	0	1	+	50pct	50pct	0	1	N128.bmp	22	30	816	1	N240.bmp	52	30	816	1	N240.bmp	22	60	816	1	N240.bmp	52	60	816	1	N0.bmp	35	45	816
113016	15:29:50	1	1	4.0.9.0	2	6	picblk	npic11	100	0	0	0	0	0	lbuttondown	0	1701	0	1	+	50pct	50pct	0	1	N240.bmp	22	30	816	1	N240.bmp	52	30	816	1	N240.bmp	22	60	816	1	N176.bmp	52	60	816	1	N0.bmp	35	45	816
113016	15:29:50	1	1	4.0.9.0	2	7	picblk	npic09	100	0	0	0	0	0	lbuttondown	1	1080	0	1	+	50pct	50pct	0	1	N240.bmp	22	30	816	1	N144.bmp	52	30	816	1	N240.bmp	22	60	816	1	N240.bmp	52	60	816	1	N0.bmp	35	45	816
113016	15:29:50	1	1	4.0.9.0	2	8	picblk	npic00	100	0	0	0	0	0	lbuttondown	1	1469	0	1	+	50pct	50pct	0	1	N0.bmp	22	30	816	1	N240.bmp	52	30	816	1	N240.bmp	22	60	816	1	N240.bmp	52	60	816	1	N0.bmp	35	45	816
113016	15:29:50	1	1	4.0.9.0	2	9	picblk	npic02	100	0	0	0	0	0	lbuttondown	1	2336	0	1	+	50pct	50pct	0	1	N240.bmp	22	30	816	1	N240.bmp	52	30	816	1	N32.bmp	22	60	816	1	N240.bmp	52	60	816	1	N0.bmp	35	45	816
113016	15:29:50	1	1	4.0.9.0	2	10	picblk	npic05	100	0	0	0	0	0	lbuttondown	1	950	0	1	+	50pct	50pct	0	1	N240.bmp	22	30	816	1	N80.bmp	52	30	816	1	N240.bmp	22	60	816	1	N240.bmp	52	60	816	1	N0.bmp	35	45	816
113016	15:29:50	1	1	4.0.9.0	2	11	picblk	npic01	100	0	0	0	0	0	lbuttondown	1	1384	0	1	+	50pct	50pct	0	1	N240.bmp	22	30	816	1	N16.bmp	52	30	816	1	N240.bmp	22	60	816	1	N240.bmp	52	60	816	1	N0.bmp	35	45	816
113016	15:29:50	1	1	4.0.9.0	2	12	picblk	npic04	100	0	0	0	0	0	lbuttondown	1	953	0	1	+	50pct	50pct	0	1	N64.bmp	22	30	816	1	N240.bmp	52	30	816	1	N240.bmp	22	60	816	1	N240.bmp	52	60	816	1	N0.bmp	35	45	816
113016	15:29:50	1	1	4.0.9.0	2	13	picblk	npic07	100	0	0	0	0	0	lbuttondown	1	908	0	1	+	50pct	50pct	0	1	N240.bmp	22	30	816	1	N240.bmp	52	30	816	1	N240.bmp	22	60	816	1	N112.bmp	52	60	816	1	N0.bmp	35	45	816
113016	15:29:50	1	1	4.0.9.0	2	14	picblk	npic03	100	0	0	0	0	0	lbuttondown	1	653	0	1	+	50pct	50pct	0	1	N240.bmp	22	30	816	1	N240.bmp	52	30	816	1	N240.bmp	22	60	816	1	N48.bmp	52	60	816	1	N0.bmp	35	45	816
113016	15:29:50	1	1	4.0.9.0	2	15	picblk	npic14	100	0	0	0	0	0	lbuttondown	0	2001	0	1	+	50pct	50pct	0	1	N240.bmp	22	30	816	1	N240.bmp	52	30	816	1	N224.bmp	22	60	816	1	N240.bmp	52	60	816	1	N0.bmp	35	45	816
