date	time	group	subject	build	blocknum	trialnum	blockcode	trialcode	pretrialpause	posttrialpause	windowcenter	trialduration	trialtimeout	blocktimeout	response	correct	latency	inwindow	stimulusnumber1	stimulusitem1	stimulusvpos1	stimulushpos1	stimulusonset1	stimulusnumber2	stimulusitem2	stimulusvpos2	stimulushpos2	stimulusonset2	stimulusnumber3	stimulusitem3	stimulusvpos3	stimulushpos3	stimulusonset3	stimulusnumber4	stimulusitem4	stimulusvpos4	stimulushpos4	stimulusonset4	stimulusnumber5	stimulusitem5	stimulusvpos5	stimulushpos5	stimulusonset5
120116	11:36:20	1	1	4.0.9.0	2	1	judgeblk	pic1	0	0	0	0	0	0	rightbottom1	0	44	0	1	+	50pct	50pct	0	1	changepic16.bmp	50pct	50pct	3316	1	changepic1.bmp	50pct	50pct	3316	1	changepic1.bmp	50pct	50pct	3316	1	changepic1.bmp	50pct	50pct	3316
120116	11:36:20	1	1	4.0.9.0	2	2	judgeblk	pic2	0	0	0	0	0	0	leftbottom2	1	37	0	1	+	50pct	50pct	0	1	changepic16.bmp	50pct	50pct	3316	1	changepic16.bmp	50pct	50pct	3316	1	changepic2.bmp	50pct	50pct	3316	1	changepic16.bmp	50pct	50pct	3316
120116	11:36:20	1	1	4.0.9.0	2	3	judgeblk	pic3	0	0	0	0	0	0	Ctrl+'Q'	1	43	0	1	+	50pct	50pct	0	1	changepic2.bmp	50pct	50pct	3316	1	changepic15.bmp	50pct	50pct	3316	1	changepic15.bmp	50pct	50pct	3316	1	changepic15.bmp	50pct	50pct	3316
120116	11:36:38	1	1	4.0.9.0	2	1	judgeblk	pic1	0	0	0	0	0	0	lefttop1	1	2460	0	1	+	50pct	50pct	0	1	changepic16.bmp	50pct	50pct	3316	1	changepic1.bmp	50pct	50pct	3316	1	changepic1.bmp	50pct	50pct	3316	1	changepic1.bmp	50pct	50pct	3316
120116	11:36:38	1	1	4.0.9.0	2	2	judgeblk	pic2	0	0	0	0	0	0	leftbottom2	1	1406	0	1	+	50pct	50pct	0	1	changepic16.bmp	50pct	50pct	3316	1	changepic16.bmp	50pct	50pct	3316	1	changepic2.bmp	50pct	50pct	3316	1	changepic16.bmp	50pct	50pct	3316
120116	11:36:38	1	1	4.0.9.0	2	3	judgeblk	pic3	0	0	0	0	0	0	lefttop3	1	925	0	1	+	50pct	50pct	0	1	changepic2.bmp	50pct	50pct	3316	1	changepic15.bmp	50pct	50pct	3316	1	changepic15.bmp	50pct	50pct	3316	1	changepic15.bmp	50pct	50pct	3316
120116	11:36:38	1	1	4.0.9.0	2	4	judgeblk	pic4	0	0	0	0	0	0	rightbottom4	1	850	0	1	+	50pct	50pct	0	1	changepic16.bmp	50pct	50pct	3316	1	changepic16.bmp	50pct	50pct	3316	1	changepic16.bmp	50pct	50pct	3316	1	changepic4.bmp	50pct	50pct	3316
120116	11:36:38	1	1	4.0.9.0	2	5	judgeblk	pic5	0	0	0	0	0	0	righttop5	0	1227	0	1	+	50pct	50pct	0	1	changepic2.bmp	50pct	50pct	3316	1	changepic13.bmp	50pct	50pct	3316	1	changepic2.bmp	50pct	50pct	3316	1	changepic2.bmp	50pct	50pct	3316
120116	11:36:38	1	1	4.0.9.0	2	6	judgeblk	pic6	0	0	0	0	0	0	righttop6	1	1161	0	1	+	50pct	50pct	0	1	changepic14.bmp	50pct	50pct	3316	1	changepic4.bmp	50pct	50pct	3316	1	changepic14.bmp	50pct	50pct	3316	1	changepic14.bmp	50pct	50pct	3316
120116	11:36:38	1	1	4.0.9.0	2	7	judgeblk	pic7	0	0	0	0	0	0	rightbottom7	1	776	0	1	+	50pct	50pct	0	1	changepic13.bmp	50pct	50pct	3316	1	changepic13.bmp	50pct	50pct	3316	1	changepic13.bmp	50pct	50pct	3316	1	changepic4.bmp	50pct	50pct	3316
120116	11:36:38	1	1	4.0.9.0	2	8	judgeblk	pic8	0	0	0	0	0	0	leftbottom8	1	735	0	1	+	50pct	50pct	0	1	changepic14.bmp	50pct	50pct	3316	1	changepic14.bmp	50pct	50pct	3316	1	changepic6.bmp	50pct	50pct	3316	1	changepic14.bmp	50pct	50pct	3316
120116	11:36:38	1	1	4.0.9.0	2	9	judgeblk	pic9	0	0	0	0	0	0	righttop9	1	965	0	1	+	50pct	50pct	0	1	changepic12.bmp	50pct	50pct	3316	1	changepic5.bmp	50pct	50pct	3316	1	changepic12.bmp	50pct	50pct	3316	1	changepic12.bmp	50pct	50pct	3316
120116	11:36:38	1	1	4.0.9.0	2	10	judgeblk	pic10	0	0	0	0	0	0	rightbottom10	1	1033	0	1	+	50pct	50pct	0	1	changepic7.bmp	50pct	50pct	3316	1	changepic7.bmp	50pct	50pct	3316	1	changepic7.bmp	50pct	50pct	3316	1	changepic13.bmp	50pct	50pct	3316
120116	11:36:38	1	1	4.0.9.0	2	11	judgeblk	pic11	0	0	0	0	0	0	lefttop11	1	880	0	1	+	50pct	50pct	0	1	changepic4.bmp	50pct	50pct	3316	1	changepic9.bmp	50pct	50pct	3316	1	changepic9.bmp	50pct	50pct	3316	1	changepic9.bmp	50pct	50pct	3316
120116	11:36:38	1	1	4.0.9.0	2	12	judgeblk	pic12	0	0	0	0	0	0	righttop12	1	857	0	1	+	50pct	50pct	0	1	changepic15.bmp	50pct	50pct	3316	1	changepic11.bmp	50pct	50pct	3316	1	changepic15.bmp	50pct	50pct	3316	1	changepic15.bmp	50pct	50pct	3316
120116	11:36:38	1	1	4.0.9.0	2	13	judgeblk	pic13	0	0	0	0	0	0	lefttop13	1	810	0	1	+	50pct	50pct	0	1	changepic5.bmp	50pct	50pct	3316	1	changepic8.bmp	50pct	50pct	3316	1	changepic8.bmp	50pct	50pct	3316	1	changepic8.bmp	50pct	50pct	3316
120116	11:36:38	1	1	4.0.9.0	2	14	judgeblk	pic14	0	0	0	0	0	0	rightbottom14	1	993	0	1	+	50pct	50pct	0	1	changepic9.bmp	50pct	50pct	3316	1	changepic9.bmp	50pct	50pct	3316	1	changepic9.bmp	50pct	50pct	3316	1	changepic7.bmp	50pct	50pct	3316
120116	11:36:38	1	1	4.0.9.0	2	15	judgeblk	pic15	0	0	0	0	0	0	leftbottom15	1	1699	0	1	+	50pct	50pct	0	1	changepic5.bmp	50pct	50pct	3316	1	changepic5.bmp	50pct	50pct	3316	1	changepic6.bmp	50pct	50pct	3316	1	changepic5.bmp	50pct	50pct	3316
120116	11:40:35	1	1	4.0.9.0	1	1	judgeblk	pic1	0	0	0	0	0	0	lefttop1	1	771	0	1	+	50pct	50pct	0	1	changepic16.bmp	50pct	50pct	3316	1	changepic1.bmp	50pct	50pct	3316	1	changepic1.bmp	50pct	50pct	3316	1	changepic1.bmp	50pct	50pct	3316
120116	11:40:35	1	1	4.0.9.0	1	2	judgeblk	pic2	0	0	0	0	0	0	leftbottom2	1	692	0	1	+	50pct	50pct	0	1	changepic16.bmp	50pct	50pct	3316	1	changepic16.bmp	50pct	50pct	3316	1	changepic2.bmp	50pct	50pct	3316	1	changepic16.bmp	50pct	50pct	3316
120116	11:40:35	1	1	4.0.9.0	1	3	judgeblk	pic3	0	0	0	0	0	0	lefttop3	1	683	0	1	+	50pct	50pct	0	1	changepic2.bmp	50pct	50pct	3316	1	changepic15.bmp	50pct	50pct	3316	1	changepic15.bmp	50pct	50pct	3316	1	changepic15.bmp	50pct	50pct	3316
120116	11:40:35	1	1	4.0.9.0	1	4	judgeblk	pic4	0	0	0	0	0	0	rightbottom4	1	756	0	1	+	50pct	50pct	0	1	changepic16.bmp	50pct	50pct	3316	1	changepic16.bmp	50pct	50pct	3316	1	changepic16.bmp	50pct	50pct	3316	1	changepic4.bmp	50pct	50pct	3316
120116	11:40:35	1	1	4.0.9.0	1	5	judgeblk	pic5	0	0	0	0	0	0	righttop5	0	1072	0	1	+	50pct	50pct	0	1	changepic2.bmp	50pct	50pct	3316	1	changepic13.bmp	50pct	50pct	3316	1	changepic2.bmp	50pct	50pct	3316	1	changepic2.bmp	50pct	50pct	3316
120116	11:40:35	1	1	4.0.9.0	1	6	judgeblk	pic6	0	0	0	0	0	0	Ctrl+'Q'	1	530	0	1	+	50pct	50pct	0	1	changepic14.bmp	50pct	50pct	3316	1	changepic4.bmp	50pct	50pct	3316	1	changepic14.bmp	50pct	50pct	3316	1	changepic14.bmp	50pct	50pct	3316
120116	11:42:06	1	1	4.0.9.0	1	1	judgeblk	pic1	0	0	0	0	0	0	lefttop1	1	635	0	1	+	50pct	50pct	0	1	changepic16.bmp	50pct	50pct	3316	1	changepic1.bmp	50pct	50pct	3316	1	changepic1.bmp	50pct	50pct	3316	1	changepic1.bmp	50pct	50pct	3316
120116	11:42:06	1	1	4.0.9.0	1	2	judgeblk	pic2	0	0	0	0	0	0	leftbottom2	1	639	0	1	+	50pct	50pct	0	1	changepic16.bmp	50pct	50pct	3316	1	changepic16.bmp	50pct	50pct	3316	1	changepic2.bmp	50pct	50pct	3316	1	changepic16.bmp	50pct	50pct	3316
120116	11:42:06	1	1	4.0.9.0	1	3	judgeblk	pic3	0	0	0	0	0	0	lefttop3	1	655	0	1	+	50pct	50pct	0	1	changepic2.bmp	50pct	50pct	3316	1	changepic15.bmp	50pct	50pct	3316	1	changepic15.bmp	50pct	50pct	3316	1	changepic15.bmp	50pct	50pct	3316
120116	11:42:06	1	1	4.0.9.0	1	4	judgeblk	pic4	0	0	0	0	0	0	rightbottom4	1	719	0	1	+	50pct	50pct	0	1	changepic16.bmp	50pct	50pct	3316	1	changepic16.bmp	50pct	50pct	3316	1	changepic16.bmp	50pct	50pct	3316	1	changepic4.bmp	50pct	50pct	3316
120116	11:42:06	1	1	4.0.9.0	1	5	judgeblk	pic5	0	0	0	0	0	0	righttop5	1	1399	0	1	+	50pct	50pct	0	1	changepic2.bmp	50pct	50pct	3316	1	changepic13.bmp	50pct	50pct	3316	1	changepic2.bmp	50pct	50pct	3316	1	changepic2.bmp	50pct	50pct	3316
120116	11:42:06	1	1	4.0.9.0	1	6	judgeblk	pic6	0	0	0	0	0	0	righttop6	1	945	0	1	+	50pct	50pct	0	1	changepic14.bmp	50pct	50pct	3316	1	changepic4.bmp	50pct	50pct	3316	1	changepic14.bmp	50pct	50pct	3316	1	changepic14.bmp	50pct	50pct	3316
120116	11:42:06	1	1	4.0.9.0	1	7	judgeblk	pic7	0	0	0	0	0	0	rightbottom7	1	725	0	1	+	50pct	50pct	0	1	changepic13.bmp	50pct	50pct	3316	1	changepic13.bmp	50pct	50pct	3316	1	changepic13.bmp	50pct	50pct	3316	1	changepic4.bmp	50pct	50pct	3316
120116	11:42:06	1	1	4.0.9.0	1	8	judgeblk	pic8	0	0	0	0	0	0	leftbottom8	1	614	0	1	+	50pct	50pct	0	1	changepic14.bmp	50pct	50pct	3316	1	changepic14.bmp	50pct	50pct	3316	1	changepic6.bmp	50pct	50pct	3316	1	changepic14.bmp	50pct	50pct	3316
120116	11:42:06	1	1	4.0.9.0	1	9	judgeblk	pic9	0	0	0	0	0	0	righttop9	1	798	0	1	+	50pct	50pct	0	1	changepic12.bmp	50pct	50pct	3316	1	changepic5.bmp	50pct	50pct	3316	1	changepic12.bmp	50pct	50pct	3316	1	changepic12.bmp	50pct	50pct	3316
120116	11:42:06	1	1	4.0.9.0	1	10	judgeblk	pic10	0	0	0	0	0	0	rightbottom10	1	785	0	1	+	50pct	50pct	0	1	changepic7.bmp	50pct	50pct	3316	1	changepic7.bmp	50pct	50pct	3316	1	changepic7.bmp	50pct	50pct	3316	1	changepic13.bmp	50pct	50pct	3316
120116	11:42:06	1	1	4.0.9.0	1	11	judgeblk	pic11	0	0	0	0	0	0	lefttop11	1	553	0	1	+	50pct	50pct	0	1	changepic4.bmp	50pct	50pct	3316	1	changepic9.bmp	50pct	50pct	3316	1	changepic9.bmp	50pct	50pct	3316	1	changepic9.bmp	50pct	50pct	3316
120116	11:42:06	1	1	4.0.9.0	1	12	judgeblk	pic12	0	0	0	0	0	0	righttop12	1	847	0	1	+	50pct	50pct	0	1	changepic15.bmp	50pct	50pct	3316	1	changepic11.bmp	50pct	50pct	3316	1	changepic15.bmp	50pct	50pct	3316	1	changepic15.bmp	50pct	50pct	3316
120116	11:42:06	1	1	4.0.9.0	1	13	judgeblk	pic13	0	0	0	0	0	0	righttop13	0	1741	0	1	+	50pct	50pct	0	1	changepic5.bmp	50pct	50pct	3316	1	changepic8.bmp	50pct	50pct	3316	1	changepic8.bmp	50pct	50pct	3316	1	changepic8.bmp	50pct	50pct	3316
120116	11:42:06	1	1	4.0.9.0	1	14	judgeblk	pic14	0	0	0	0	0	0	Ctrl+'Q'	1	0	0	1	+	50pct	50pct	0	1	changepic9.bmp	50pct	50pct	3321	1	changepic9.bmp	50pct	50pct	3321	1	changepic9.bmp	50pct	50pct	3321	1	changepic7.bmp	50pct	50pct	3321
