date	time	group	subject	build	blocknum	trialnum	blockcode	trialcode	pretrialpause	posttrialpause	windowcenter	trialduration	trialtimeout	blocktimeout	response	correct	latency	inwindow	stimulusnumber1	stimulusitem1	stimulusvpos1	stimulushpos1	stimulusonset1	stimulusnumber2	stimulusitem2	stimulusvpos2	stimulushpos2	stimulusonset2	stimulusnumber3	stimulusitem3	stimulusvpos3	stimulushpos3	stimulusonset3	stimulusnumber4	stimulusitem4	stimulusvpos4	stimulushpos4	stimulusonset4
113016	22:52:51	1	1	4.0.9.0	2	1	threshold	6	500	0	0	0	0	0	incon6	1	11133	0	1	6.bmp	45	40	0	1	16.bmp	45	20	0	1	16.bmp	45	60	0	1	16.bmp	45	80	0
113016	22:52:51	1	1	4.0.9.0	2	2	threshold	8	500	0	0	0	0	0	incon8	1	1098	0	1	8.bmp	45	80	7	1	16.bmp	45	20	7	1	16.bmp	45	40	7	1	16.bmp	45	60	7
113016	22:52:51	1	1	4.0.9.0	2	3	threshold	13	500	0	0	0	0	0	incon13	1	1951	0	1	13.bmp	45	20	7	1	16.bmp	45	40	7	1	16.bmp	45	60	7	1	16.bmp	45	80	7
113016	22:52:51	1	1	4.0.9.0	2	4	threshold	5	500	0	0	0	0	0	incon5	1	761	0	1	5.bmp	45	20	5	1	16.bmp	45	40	5	1	16.bmp	45	60	5	1	16.bmp	45	80	5
113016	22:52:51	1	1	4.0.9.0	2	5	threshold	3	500	0	0	0	0	0	incon3	1	3740	0	1	3.bmp	45	60	5	1	16.bmp	45	20	5	1	16.bmp	45	40	5	1	16.bmp	45	80	5
113016	22:52:51	1	1	4.0.9.0	2	6	threshold	15	500	0	0	0	0	0	incon15	1	943	0	1	15.bmp	45	60	5	1	16.bmp	45	20	5	1	16.bmp	45	40	5	1	16.bmp	45	80	5
113016	22:52:51	1	1	4.0.9.0	2	7	threshold	14	500	0	0	0	0	0	incon14	1	3306	0	1	14.bmp	45	40	4	1	16.bmp	45	20	4	1	16.bmp	45	60	4	1	16.bmp	45	80	4
113016	22:52:51	1	1	4.0.9.0	2	8	threshold	7	500	0	0	0	0	0	incon7	1	359	0	1	7.bmp	45	60	4	1	16.bmp	45	20	4	1	16.bmp	45	40	4	1	16.bmp	45	80	4
113016	22:52:51	1	1	4.0.9.0	2	9	threshold	12	500	0	0	0	0	0	incon12	1	129	0	1	12.bmp	45	80	4	1	16.bmp	45	20	4	1	16.bmp	45	40	4	1	16.bmp	45	60	4
113016	22:52:51	1	1	4.0.9.0	2	10	threshold	1	500	0	0	0	0	0	consistent3	0	245	0	1	1.bmp	45	20	4	1	16.bmp	45	40	4	1	16.bmp	45	60	4	1	16.bmp	45	80	4
113016	22:52:51	1	1	4.0.9.0	2	11	threshold	4	500	0	0	0	0	0	incon4	1	564	0	1	4.bmp	45	80	4	1	16.bmp	45	20	4	1	16.bmp	45	40	4	1	16.bmp	45	60	4
113016	22:52:51	1	1	4.0.9.0	2	12	threshold	9	500	0	0	0	0	0	consistent3	0	254	0	1	9.bmp	45	20	3	1	16.bmp	45	40	3	1	16.bmp	45	60	3	1	16.bmp	45	80	3
113016	22:52:51	1	1	4.0.9.0	2	13	threshold	10	500	0	0	0	0	0	consistent3	0	252	0	1	10.bmp	45	40	3	1	16.bmp	45	20	3	1	16.bmp	45	60	3	1	16.bmp	45	80	3
113016	22:52:51	1	1	4.0.9.0	2	14	threshold	2	500	0	0	0	0	0	consistent3	0	211	0	1	2.bmp	45	40	4	1	16.bmp	45	20	4	1	16.bmp	45	60	4	1	16.bmp	45	80	4
113016	22:52:51	1	1	4.0.9.0	2	15	threshold	11	500	0	0	0	0	0	incon11	1	243	0	1	11.bmp	45	60	4	1	16.bmp	45	20	4	1	16.bmp	45	40	4	1	16.bmp	45	80	4
113016	23:12:00	1	1	4.0.9.0	2	1	threshold	6	500	0	0	0	0	0	incon6	1	3499	0	1	6.bmp	45	40	2	1	16.bmp	45	20	2	1	16.bmp	45	60	2	1	16.bmp	45	80	2
113016	23:12:00	1	1	4.0.9.0	2	2	threshold	9	500	0	0	0	0	0	incon9	1	362	0	1	9.bmp	45	20	10	1	16.bmp	45	40	10	1	16.bmp	45	60	10	1	16.bmp	45	80	10
113016	23:12:00	1	1	4.0.9.0	2	3	threshold	13	500	0	0	0	0	0	consistent3	0	653	0	1	13.bmp	45	20	11	1	16.bmp	45	40	11	1	16.bmp	45	60	11	1	16.bmp	45	80	11
113016	23:12:00	1	1	4.0.9.0	2	4	threshold	1	500	0	0	0	0	0	incon1	1	299	0	1	1.bmp	45	20	17	1	16.bmp	45	40	17	1	16.bmp	45	60	17	1	16.bmp	45	80	17
113016	23:12:00	1	1	4.0.9.0	2	5	threshold	10	500	0	0	0	0	0	incon10	1	254	0	1	10.bmp	45	40	12	1	16.bmp	45	20	12	1	16.bmp	45	60	12	1	16.bmp	45	80	12
113016	23:12:00	1	1	4.0.9.0	2	6	threshold	15	500	0	0	0	0	0	incon15	1	197	0	1	15.bmp	45	60	10	1	16.bmp	45	20	10	1	16.bmp	45	40	10	1	16.bmp	45	80	10
113016	23:12:00	1	1	4.0.9.0	2	7	threshold	5	500	0	0	0	0	0	consistent2	0	38	0	1	5.bmp	45	20	6	1	16.bmp	45	40	6	1	16.bmp	45	60	6	1	16.bmp	45	80	6
113016	23:12:00	1	1	4.0.9.0	2	8	threshold	8	500	0	0	0	0	0	incon8	1	204	0	1	8.bmp	45	80	7	1	16.bmp	45	20	7	1	16.bmp	45	40	7	1	16.bmp	45	60	7
113016	23:12:00	1	1	4.0.9.0	2	9	threshold	7	500	0	0	0	0	0	incon7	1	221	0	1	7.bmp	45	60	8	1	16.bmp	45	20	8	1	16.bmp	45	40	8	1	16.bmp	45	80	8
113016	23:12:00	1	1	4.0.9.0	2	10	threshold	12	500	0	0	0	0	0	incon12	1	197	0	1	12.bmp	45	80	6	1	16.bmp	45	20	6	1	16.bmp	45	40	6	1	16.bmp	45	60	6
113016	23:12:00	1	1	4.0.9.0	2	11	threshold	3	500	0	0	0	0	0	incon3	1	237	0	1	3.bmp	45	60	4	1	16.bmp	45	20	4	1	16.bmp	45	40	4	1	16.bmp	45	80	4
113016	23:12:00	1	1	4.0.9.0	2	12	threshold	11	500	0	0	0	0	0	incon11	1	3204	0	1	11.bmp	45	60	6	1	16.bmp	45	20	6	1	16.bmp	45	40	6	1	16.bmp	45	80	6
113016	23:12:00	1	1	4.0.9.0	2	13	threshold	4	500	0	0	0	0	0	Ctrl+'Q'	1	2147	0	1	4.bmp	45	80	6	1	16.bmp	45	20	6	1	16.bmp	45	40	6	1	16.bmp	45	60	6
113016	23:31:18	1	1	4.0.9.0	2	1	threshold	14	500	0	0	0	0	0	incon14	1	4689	0	1	14.bmp	45	40	1	1	16.bmp	45	20	1	1	16.bmp	45	60	1	1	16.bmp	45	80	1
113016	23:31:18	1	1	4.0.9.0	2	2	threshold	7	500	0	0	0	0	0	consistent1	0	609	0	1	7.bmp	45	60	3	1	16.bmp	45	20	3	1	16.bmp	45	40	3	1	16.bmp	45	80	3
113016	23:31:18	1	1	4.0.9.0	2	3	threshold	2	500	0	0	0	0	0	consistent3	0	1371	0	1	2.bmp	45	40	3	1	16.bmp	45	20	3	1	16.bmp	45	60	3	1	16.bmp	45	80	3
113016	23:31:18	1	1	4.0.9.0	2	4	threshold	6	500	0	0	0	0	0	incon6	1	6210	0	1	6.bmp	45	40	3	1	16.bmp	45	20	3	1	16.bmp	45	60	3	1	16.bmp	45	80	3
113016	23:31:18	1	1	4.0.9.0	2	5	threshold	1	500	0	0	0	0	0	consistent4	0	307	0	1	1.bmp	45	20	3	1	16.bmp	45	40	3	1	16.bmp	45	60	3	1	16.bmp	45	80	3
113016	23:31:18	1	1	4.0.9.0	2	6	threshold	5	500	0	0	0	0	0	incon5	1	1128	0	1	5.bmp	45	20	4	1	16.bmp	45	40	4	1	16.bmp	45	60	4	1	16.bmp	45	80	4
113016	23:31:18	1	1	4.0.9.0	2	7	threshold	4	500	0	0	0	0	0	incon4	1	8835	0	1	4.bmp	45	80	4	1	16.bmp	45	20	4	1	16.bmp	45	40	4	1	16.bmp	45	60	4
113016	23:31:18	1	1	4.0.9.0	2	8	threshold	9	500	0	0	0	0	0	incon9	1	1012	0	1	9.bmp	45	20	1	1	16.bmp	45	40	1	1	16.bmp	45	60	1	1	16.bmp	45	80	1
113016	23:31:18	1	1	4.0.9.0	2	9	threshold	3	500	0	0	0	0	0	incon3	1	380	0	1	3.bmp	45	60	3	1	16.bmp	45	20	3	1	16.bmp	45	40	3	1	16.bmp	45	80	3
113016	23:31:18	1	1	4.0.9.0	2	10	threshold	12	500	0	0	0	0	0	incon12	1	2318	0	1	12.bmp	45	80	4	1	16.bmp	45	20	4	1	16.bmp	45	40	4	1	16.bmp	45	60	4
113016	23:31:18	1	1	4.0.9.0	2	11	threshold	15	500	0	0	0	0	0	incon15	1	1634	0	1	15.bmp	45	60	2	1	16.bmp	45	20	2	1	16.bmp	45	40	2	1	16.bmp	45	80	2
113016	23:31:18	1	1	4.0.9.0	2	12	threshold	8	500	0	0	0	0	0	incon8	1	713	0	1	8.bmp	45	80	3	1	16.bmp	45	20	3	1	16.bmp	45	40	3	1	16.bmp	45	60	3
113016	23:31:18	1	1	4.0.9.0	2	13	threshold	10	500	0	0	0	0	0	consistent3	0	694	0	1	10.bmp	45	40	2	1	16.bmp	45	20	2	1	16.bmp	45	60	2	1	16.bmp	45	80	2
113016	23:31:18	1	1	4.0.9.0	2	14	threshold	13	500	0	0	0	0	0	consistent4	0	243	0	1	13.bmp	45	20	3	1	16.bmp	45	40	3	1	16.bmp	45	60	3	1	16.bmp	45	80	3
113016	23:31:18	1	1	4.0.9.0	2	15	threshold	11	500	0	0	0	0	0	consistent4	0	185	0	1	11.bmp	45	60	3	1	16.bmp	45	20	3	1	16.bmp	45	40	3	1	16.bmp	45	80	3
113016	23:36:09	1	1	4.0.9.0	2	1	threshold	13	500	0	0	0	0	0	consistent2	0	5580	0	1	13.bmp	45	20	0	1	16.bmp	45	40	0	1	16.bmp	45	60	0	1	16.bmp	45	80	0
113016	23:36:09	1	1	4.0.9.0	2	2	threshold	14	500	0	0	0	0	0	incon14	1	1822	0	1	14.bmp	45	40	5	1	16.bmp	45	20	5	1	16.bmp	45	60	5	1	16.bmp	45	80	5
113016	23:36:09	1	1	4.0.9.0	2	3	threshold	2	500	0	0	0	0	0	incon2	1	1438	0	1	2.bmp	45	40	4	1	16.bmp	45	20	4	1	16.bmp	45	60	4	1	16.bmp	45	80	4
113016	23:36:09	1	1	4.0.9.0	2	4	threshold	4	500	0	0	0	0	0	incon4	1	4077	0	1	4.bmp	45	80	4	1	16.bmp	45	20	4	1	16.bmp	45	40	4	1	16.bmp	45	60	4
113016	23:36:09	1	1	4.0.9.0	2	5	threshold	12	500	0	0	0	0	0	Ctrl+'Q'	1	3781	0	1	12.bmp	45	80	3	1	16.bmp	45	20	3	1	16.bmp	45	40	3	1	16.bmp	45	60	3
113016	23:38:14	1	1	4.0.9.0	2	1	threshold	8	500	0	0	0	0	0	incon8	1	15859	0	1	8.bmp	45	80	0	1	16.bmp	45	20	0	1	16.bmp	45	40	0	1	16.bmp	45	60	0
113016	23:38:14	1	1	4.0.9.0	2	2	threshold	9	500	0	0	0	0	0	incon9	1	2253	0	1	9.bmp	45	20	4	1	16.bmp	45	40	4	1	16.bmp	45	60	4	1	16.bmp	45	80	4
113016	23:38:14	1	1	4.0.9.0	2	3	threshold	6	500	0	0	0	0	0	incon6	1	667	0	1	6.bmp	45	40	2	1	16.bmp	45	20	2	1	16.bmp	45	60	2	1	16.bmp	45	80	2
113016	23:38:14	1	1	4.0.9.0	2	4	threshold	13	500	0	0	0	0	0	incon13	1	1761	0	1	13.bmp	45	20	7	1	16.bmp	45	40	7	1	16.bmp	45	60	7	1	16.bmp	45	80	7
113016	23:38:14	1	1	4.0.9.0	2	5	threshold	5	500	0	0	0	0	0	incon5	1	588	0	1	5.bmp	45	20	4	1	16.bmp	45	40	4	1	16.bmp	45	60	4	1	16.bmp	45	80	4
113016	23:38:14	1	1	4.0.9.0	2	6	threshold	15	500	0	0	0	0	0	incon15	1	2638	0	1	15.bmp	45	60	3	1	16.bmp	45	20	3	1	16.bmp	45	40	3	1	16.bmp	45	80	3
113016	23:38:14	1	1	4.0.9.0	2	7	threshold	10	500	0	0	0	0	0	incon10	1	1076	0	1	10.bmp	45	40	3	1	16.bmp	45	20	3	1	16.bmp	45	60	3	1	16.bmp	45	80	3
113016	23:38:14	1	1	4.0.9.0	2	8	threshold	12	500	0	0	0	0	0	incon12	1	1842	0	1	12.bmp	45	80	4	1	16.bmp	45	20	4	1	16.bmp	45	40	4	1	16.bmp	45	60	4
113016	23:38:14	1	1	4.0.9.0	2	9	threshold	1	500	0	0	0	0	0	incon1	1	905	0	1	1.bmp	45	20	4	1	16.bmp	45	40	4	1	16.bmp	45	60	4	1	16.bmp	45	80	4
113016	23:38:14	1	1	4.0.9.0	2	10	threshold	7	500	0	0	0	0	0	incon7	1	556	0	1	7.bmp	45	60	6	1	16.bmp	45	20	6	1	16.bmp	45	40	6	1	16.bmp	45	80	6
113016	23:38:14	1	1	4.0.9.0	2	11	threshold	2	500	0	0	0	0	0	incon2	1	608	0	1	2.bmp	45	40	5	1	16.bmp	45	20	5	1	16.bmp	45	60	5	1	16.bmp	45	80	5
113016	23:38:14	1	1	4.0.9.0	2	12	threshold	11	500	0	0	0	0	0	incon11	1	2976	0	1	11.bmp	45	60	3	1	16.bmp	45	20	3	1	16.bmp	45	40	3	1	16.bmp	45	80	3
113016	23:38:14	1	1	4.0.9.0	2	13	threshold	4	500	0	0	0	0	0	incon4	1	698	0	1	4.bmp	45	80	3	1	16.bmp	45	20	3	1	16.bmp	45	40	3	1	16.bmp	45	60	3
113016	23:38:14	1	1	4.0.9.0	2	14	threshold	3	500	0	0	0	0	0	incon3	1	825	0	1	3.bmp	45	60	3	1	16.bmp	45	20	3	1	16.bmp	45	40	3	1	16.bmp	45	80	3
113016	23:38:14	1	1	4.0.9.0	2	15	threshold	14	500	0	0	0	0	0	incon14	1	1802	0	1	14.bmp	45	40	2	1	16.bmp	45	20	2	1	16.bmp	45	60	2	1	16.bmp	45	80	2
113016	23:45:48	1	1	4.0.9.0	2	1	threshold	5	500	0	0	0	0	0	consistent2	0	1356	0	1	5.bmp	45	20	1	1	16.bmp	45	40	1	1	16.bmp	45	60	1	1	16.bmp	45	80	1
113016	23:45:48	1	1	4.0.9.0	2	2	threshold	12	500	0	0	0	0	0	Ctrl+'Q'	1	449	0	1	12.bmp	45	80	4	1	16.bmp	45	20	4	1	16.bmp	45	40	4	1	16.bmp	45	60	4
113016	23:46:24	1	1	4.0.9.0	2	1	threshold	7	500	0	0	0	0	0	consistent2	0	4955	0	1	7.bmp	45	60	1	1	16.bmp	45	20	1	1	16.bmp	45	40	1	1	16.bmp	45	80	1
113016	23:46:24	1	1	4.0.9.0	2	2	threshold	3	500	0	0	0	0	0	Ctrl+'Q'	1	4136	0	1	3.bmp	45	60	3	1	16.bmp	45	20	3	1	16.bmp	45	40	3	1	16.bmp	45	80	3
