date	time	group	subject	build	blocknum	trialnum	blockcode	trialcode	pretrialpause	posttrialpause	windowcenter	trialduration	trialtimeout	blocktimeout	response	correct	latency	inwindow	stimulusnumber1	stimulusitem1	stimulusvpos1	stimulushpos1	stimulusonset1	stimulusnumber2	stimulusitem2	stimulusvpos2	stimulushpos2	stimulusonset2	stimulusnumber3	stimulusitem3	stimulusvpos3	stimulushpos3	stimulusonset3	stimulusnumber4	stimulusitem4	stimulusvpos4	stimulushpos4	stimulusonset4	stimulusnumber5	stimulusitem5	stimulusvpos5	stimulushpos5	stimulusonset5
113016	10:14:09	1	1	4.0.9.0	1	1	chabieyuxian	nine	500	0	0	0	0	0	norpic1	1	50	0	1	+	50pct	50pct	0	1	N240.bmp	50pct	20	499	1	N240.bmp	50pct	40	499	1	N240.bmp	50pct	60	499	1	N105.bmp	50pct	20	499
113016	10:14:09	1	1	4.0.9.0	1	2	chabieyuxian	two	500	0	0	0	0	0	norpic1	1	43	0	1	+	50pct	50pct	12	1	N240.bmp	50pct	20	503	1	N210.bmp	50pct	40	503	1	N240.bmp	50pct	60	503	1	N240.bmp	50pct	80	503
113016	10:14:09	1	1	4.0.9.0	1	3	chabieyuxian	fifteen	500	0	0	0	0	0	abnorpic15	1	24	0	1	+	50pct	50pct	4	1	N240.bmp	50pct	20	499	1	N15.bmp	50pct	60	499	1	N240.bmp	50pct	60	499	1	N240.bmp	50pct	80	499
113016	10:14:09	1	1	4.0.9.0	1	4	chabieyuxian	ten	500	0	0	0	0	0	abnorpic10	1	27	0	1	+	50pct	50pct	13	1	N90.bmp	50pct	40	499	1	N240.bmp	50pct	40	499	1	N240.bmp	50pct	60	499	1	N240.bmp	50pct	80	499
113016	10:14:09	1	1	4.0.9.0	1	5	chabieyuxian	six	500	0	0	0	0	0	norpic1	1	49	0	1	+	50pct	50pct	4	1	N240.bmp	50pct	20	499	1	N150.bmp	50pct	40	499	1	N240.bmp	50pct	60	499	1	N240.bmp	50pct	80	499
113016	10:14:09	1	1	4.0.9.0	1	6	chabieyuxian	four	500	0	0	0	0	0	norpic3	1	24	0	1	+	50pct	50pct	12	1	N225.bmp	50pct	20	499	1	N240.bmp	50pct	40	499	1	N240.bmp	50pct	60	499	1	N180.bmp	50pct	80	499
113016	10:14:09	1	1	4.0.9.0	1	7	chabieyuxian	thirteen	500	0	0	0	0	0	norpic1	1	33	0	1	+	50pct	50pct	18	1	N240.bmp	50pct	20	499	1	N240.bmp	50pct	40	499	1	N240.bmp	50pct	60	499	1	N45.bmp	50pct	20	499
113016	10:14:09	1	1	4.0.9.0	1	8	chabieyuxian	eleven	500	0	0	0	0	0	abnorpic11	1	42	0	1	+	50pct	50pct	15	1	N240.bmp	50pct	20	499	1	N75.bmp	50pct	60	499	1	N240.bmp	50pct	60	499	1	N240.bmp	50pct	80	499
113016	10:14:09	1	1	4.0.9.0	1	9	chabieyuxian	five	500	0	0	0	0	0	abnorpic5	1	50	0	1	+	50pct	50pct	23	1	N165.bmp	50pct	20	499	1	N240.bmp	50pct	40	499	1	N240.bmp	50pct	60	499	1	N240.bmp	50pct	80	499
113016	10:14:09	1	1	4.0.9.0	1	10	chabieyuxian	three	500	0	0	0	0	0	norpic2	1	29	0	1	+	50pct	50pct	22	1	N240.bmp	50pct	20	499	1	N240.bmp	50pct	40	499	1	N195.bmp	50pct	60	499	1	N240.bmp	50pct	80	499
113016	10:14:09	1	1	4.0.9.0	1	11	chabieyuxian	twelve	500	0	0	0	0	0	abnorpic12	1	40	0	1	+	50pct	50pct	18	1	N240.bmp	50pct	20	499	1	N240.bmp	50pct	40	499	1	N60.bmp	50pct	80	499	1	N240.bmp	50pct	80	499
113016	10:14:09	1	1	4.0.9.0	1	12	chabieyuxian	eight	500	0	0	0	0	0	norpic3	1	57	0	1	+	50pct	50pct	20	1	N240.bmp	50pct	20	499	1	N240.bmp	50pct	40	499	1	N240.bmp	50pct	60	499	1	N120.bmp	50pct	80	499
113016	10:14:09	1	1	4.0.9.0	1	13	chabieyuxian	fourteen	500	0	0	0	0	0	abnorpic14	1	37	0	1	+	50pct	50pct	12	1	N30.bmp	50pct	40	499	1	N240.bmp	50pct	40	499	1	N240.bmp	50pct	60	499	1	N240.bmp	50pct	80	499
113016	10:14:09	1	1	4.0.9.0	1	14	chabieyuxian	one	500	0	0	0	0	0	abnorpic1	1	46	0	1	+	50pct	50pct	10	1	N225.bmp	50pct	20	499	1	N240.bmp	50pct	40	499	1	N240.bmp	50pct	60	499	1	N240.bmp	50pct	80	499
113016	10:14:09	1	1	4.0.9.0	1	15	chabieyuxian	seven	500	0	0	0	0	0	norpic2	1	26	0	1	+	50pct	50pct	24	1	N240.bmp	50pct	20	499	1	N240.bmp	50pct	40	499	1	N135.bmp	50pct	60	499	1	N240.bmp	50pct	80	499
113016	10:16:32	1	1	4.0.9.0	1	1	chabieyuxian	fourteen	500	0	0	0	0	0	abnorpic14	1	27	0	1	+	50pct	50pct	0	1	N30.bmp	50pct	40	499	1	N240.bmp	50pct	40	499	1	N240.bmp	50pct	60	499	1	N240.bmp	50pct	80	499
113016	10:16:32	1	1	4.0.9.0	1	2	chabieyuxian	twelve	500	0	0	0	0	0	abnorpic12	1	36	0	1	+	50pct	50pct	0	1	N240.bmp	50pct	20	499	1	N240.bmp	50pct	40	499	1	N60.bmp	50pct	80	499	1	N240.bmp	50pct	80	499
113016	10:16:32	1	1	4.0.9.0	1	3	chabieyuxian	seven	500	0	0	0	0	0	abnorpic7	1	41	0	1	+	50pct	50pct	0	1	N240.bmp	50pct	20	499	1	N240.bmp	50pct	40	499	1	N135.bmp	50pct	60	499	1	N240.bmp	50pct	80	499
113016	10:16:32	1	1	4.0.9.0	1	4	chabieyuxian	fifteen	500	0	0	0	0	0	abnorpic15	1	46	0	1	+	50pct	50pct	0	1	N240.bmp	50pct	20	499	1	N15.bmp	50pct	60	499	1	N240.bmp	50pct	60	499	1	N240.bmp	50pct	80	499
113016	10:16:32	1	1	4.0.9.0	1	5	chabieyuxian	eight	500	0	0	0	0	0	abnorpic8	1	24	0	1	+	50pct	50pct	0	1	N240.bmp	50pct	20	499	1	N240.bmp	50pct	40	499	1	N240.bmp	50pct	60	499	1	N120.bmp	50pct	80	499
113016	10:16:32	1	1	4.0.9.0	1	6	chabieyuxian	one	500	0	0	0	0	0	abnorpic1	1	51	0	1	+	50pct	50pct	0	1	N225.bmp	50pct	20	499	1	N240.bmp	50pct	40	499	1	N240.bmp	50pct	60	499	1	N240.bmp	50pct	80	499
113016	10:16:32	1	1	4.0.9.0	1	7	chabieyuxian	three	500	0	0	0	0	0	abnorpic3	1	56	0	1	+	50pct	50pct	0	1	N240.bmp	50pct	20	499	1	N240.bmp	50pct	40	499	1	N195.bmp	50pct	60	499	1	N240.bmp	50pct	80	499
113016	10:16:32	1	1	4.0.9.0	1	8	chabieyuxian	two	500	0	0	0	0	0	abnorpic2	1	64	0	1	+	50pct	50pct	0	1	N240.bmp	50pct	20	499	1	N210.bmp	50pct	40	499	1	N240.bmp	50pct	60	499	1	N240.bmp	50pct	80	499
113016	10:16:32	1	1	4.0.9.0	1	9	chabieyuxian	nine	500	0	0	0	0	0	norpic1	1	50	0	1	+	50pct	50pct	0	1	N240.bmp	50pct	20	499	1	N240.bmp	50pct	40	499	1	N240.bmp	50pct	60	499	1	N105.bmp	50pct	20	499
113016	10:16:32	1	1	4.0.9.0	1	10	chabieyuxian	eleven	500	0	0	0	0	0	abnorpic11	1	37	0	1	+	50pct	50pct	0	1	N240.bmp	50pct	20	499	1	N75.bmp	50pct	60	499	1	N240.bmp	50pct	60	499	1	N240.bmp	50pct	80	499
113016	10:16:32	1	1	4.0.9.0	1	11	chabieyuxian	ten	500	0	0	0	0	0	abnorpic10	1	29	0	1	+	50pct	50pct	0	1	N90.bmp	50pct	40	499	1	N240.bmp	50pct	40	499	1	N240.bmp	50pct	60	499	1	N240.bmp	50pct	80	499
113016	10:16:32	1	1	4.0.9.0	1	12	chabieyuxian	thirteen	500	0	0	0	0	0	norpic1	1	50	0	1	+	50pct	50pct	0	1	N240.bmp	50pct	20	499	1	N240.bmp	50pct	40	499	1	N240.bmp	50pct	60	499	1	N45.bmp	50pct	20	499
113016	10:16:32	1	1	4.0.9.0	1	13	chabieyuxian	six	500	0	0	0	0	0	abnorpic6	1	37	0	1	+	50pct	50pct	0	1	N240.bmp	50pct	20	499	1	N150.bmp	50pct	40	499	1	N240.bmp	50pct	60	499	1	N240.bmp	50pct	80	499
113016	10:16:32	1	1	4.0.9.0	1	14	chabieyuxian	five	500	0	0	0	0	0	abnorpic5	1	25	0	1	+	50pct	50pct	0	1	N165.bmp	50pct	20	499	1	N240.bmp	50pct	40	499	1	N240.bmp	50pct	60	499	1	N240.bmp	50pct	80	499
113016	10:16:32	1	1	4.0.9.0	1	15	chabieyuxian	four	500	0	0	0	0	0	abnorpic4	1	35	0	1	+	50pct	50pct	0	1	N225.bmp	50pct	20	499	1	N240.bmp	50pct	40	499	1	N240.bmp	50pct	60	499	1	N180.bmp	50pct	80	499
113016	10:19:35	1	1	4.0.9.0	1	1	chabieyuxian	eleven	500	0	0	0	0	0	abnorpic11	1	32	0	1	+	50pct	50pct	0	1	N240.bmp	50pct	20	499	1	N75.bmp	50pct	60	499	1	N240.bmp	50pct	60	499	1	N240.bmp	50pct	80	499
113016	10:19:35	1	1	4.0.9.0	1	2	chabieyuxian	six	500	0	0	0	0	0	abnorpic6	1	35	0	1	+	50pct	50pct	0	1	N240.bmp	50pct	20	499	1	N150.bmp	50pct	40	499	1	N240.bmp	50pct	60	499	1	N240.bmp	50pct	80	499
113016	10:19:35	1	1	4.0.9.0	1	3	chabieyuxian	twelve	500	0	0	0	0	0	abnorpic12	1	51	0	1	+	50pct	50pct	0	1	N240.bmp	50pct	20	499	1	N240.bmp	50pct	40	499	1	N60.bmp	50pct	80	499	1	N240.bmp	50pct	80	499
113016	10:19:35	1	1	4.0.9.0	1	4	chabieyuxian	five	500	0	0	0	0	0	abnorpic5	1	32	0	1	+	50pct	50pct	0	1	N165.bmp	50pct	20	499	1	N240.bmp	50pct	40	499	1	N240.bmp	50pct	60	499	1	N240.bmp	50pct	80	499
113016	10:19:35	1	1	4.0.9.0	1	5	chabieyuxian	ten	500	0	0	0	0	0	abnorpic10	1	26	0	1	+	50pct	50pct	0	1	N90.bmp	50pct	40	499	1	N240.bmp	50pct	40	499	1	N240.bmp	50pct	60	499	1	N240.bmp	50pct	80	499
113016	10:19:35	1	1	4.0.9.0	1	6	chabieyuxian	thirteen	500	0	0	0	0	0	norpic1	1	51	0	1	+	50pct	50pct	0	1	N240.bmp	50pct	20	499	1	N240.bmp	50pct	40	499	1	N240.bmp	50pct	60	499	1	N45.bmp	50pct	20	499
113016	10:19:35	1	1	4.0.9.0	1	7	chabieyuxian	three	500	0	0	0	0	0	abnorpic3	1	23	0	1	+	50pct	50pct	0	1	N240.bmp	50pct	20	499	1	N240.bmp	50pct	40	499	1	N195.bmp	50pct	60	499	1	N240.bmp	50pct	80	499
113016	10:19:35	1	1	4.0.9.0	1	8	chabieyuxian	four	500	0	0	0	0	0	abnorpic4	1	44	0	1	+	50pct	50pct	0	1	N225.bmp	50pct	20	499	1	N240.bmp	50pct	40	499	1	N240.bmp	50pct	60	499	1	N180.bmp	50pct	80	499
113016	10:19:35	1	1	4.0.9.0	1	9	chabieyuxian	nine	500	0	0	0	0	0	norpic1	1	41	0	1	+	50pct	50pct	0	1	N240.bmp	50pct	20	499	1	N240.bmp	50pct	40	499	1	N240.bmp	50pct	60	499	1	N105.bmp	50pct	20	499
113016	10:19:35	1	1	4.0.9.0	1	10	chabieyuxian	eight	500	0	0	0	0	0	abnorpic8	1	32	0	1	+	50pct	50pct	0	1	N240.bmp	50pct	20	499	1	N240.bmp	50pct	40	499	1	N240.bmp	50pct	60	499	1	N120.bmp	50pct	80	499
113016	10:19:35	1	1	4.0.9.0	1	11	chabieyuxian	seven	500	0	0	0	0	0	abnorpic7	1	33	0	1	+	50pct	50pct	0	1	N240.bmp	50pct	20	499	1	N240.bmp	50pct	40	499	1	N135.bmp	50pct	60	499	1	N240.bmp	50pct	80	499
113016	10:19:35	1	1	4.0.9.0	1	12	chabieyuxian	one	500	0	0	0	0	0	abnorpic1	1	26	0	1	+	50pct	50pct	0	1	N225.bmp	50pct	20	499	1	N240.bmp	50pct	40	499	1	N240.bmp	50pct	60	499	1	N240.bmp	50pct	80	499
113016	10:19:35	1	1	4.0.9.0	1	13	chabieyuxian	fifteen	500	0	0	0	0	0	abnorpic15	1	58	0	1	+	50pct	50pct	0	1	N240.bmp	50pct	20	499	1	N15.bmp	50pct	60	499	1	N240.bmp	50pct	60	499	1	N240.bmp	50pct	80	499
113016	10:19:35	1	1	4.0.9.0	1	14	chabieyuxian	two	500	0	0	0	0	0	abnorpic2	1	44	0	1	+	50pct	50pct	0	1	N240.bmp	50pct	20	499	1	N210.bmp	50pct	40	499	1	N240.bmp	50pct	60	499	1	N240.bmp	50pct	80	499
113016	10:19:35	1	1	4.0.9.0	1	15	chabieyuxian	fourteen	500	0	0	0	0	0	abnorpic14	1	61	0	1	+	50pct	50pct	0	1	N30.bmp	50pct	40	499	1	N240.bmp	50pct	40	499	1	N240.bmp	50pct	60	499	1	N240.bmp	50pct	80	499
113016	10:20:15	1	1	4.0.9.0	1	1	chabieyuxian	three	500	0	0	0	0	0	abnorpic3	1	4424	0	1	+	50pct	50pct	0	1	N240.bmp	50pct	20	499	1	N240.bmp	50pct	40	499	1	N195.bmp	50pct	60	499	1	N240.bmp	50pct	80	499
113016	10:20:15	1	1	4.0.9.0	1	2	chabieyuxian	nine	500	0	0	0	0	0	norpic1	1	1267	0	1	+	50pct	50pct	0	1	N240.bmp	50pct	20	499	1	N240.bmp	50pct	40	499	1	N240.bmp	50pct	60	499	1	N105.bmp	50pct	20	499
113016	10:34:57	1	1	4.0.9.0	1	1	chabieyuxian	twelve	500	0	0	0	0	0	abnorpic12	1	31	0	1	+	50pct	50pct	0	1	N240.bmp	50pct	20	499	1	N240.bmp	50pct	40	499	1	N60.bmp	50pct	80	499	1	N240.bmp	50pct	80	499
113016	10:34:57	1	1	4.0.9.0	1	2	chabieyuxian	seven	500	0	0	0	0	0	abnorpic7	1	36	0	1	+	50pct	50pct	0	1	N240.bmp	50pct	20	499	1	N240.bmp	50pct	40	499	1	N135.bmp	50pct	60	499	1	N240.bmp	50pct	80	499
113016	10:34:57	1	1	4.0.9.0	1	3	chabieyuxian	five	500	0	0	0	0	0	abnorpic5	1	47	0	1	+	50pct	50pct	0	1	N165.bmp	50pct	20	499	1	N240.bmp	50pct	40	499	1	N240.bmp	50pct	60	499	1	N240.bmp	50pct	80	499
113016	10:34:57	1	1	4.0.9.0	1	4	chabieyuxian	two	500	0	0	0	0	0	norpic3	0	18	0	1	+	50pct	50pct	0	1	N240.bmp	50pct	20	499	1	N210.bmp	50pct	40	499	1	N240.bmp	50pct	60	499	1	N240.bmp	50pct	80	499
113016	10:34:57	1	1	4.0.9.0	1	5	chabieyuxian	eight	500	0	0	0	0	0	abnorpic8	1	35	0	1	+	50pct	50pct	0	1	N240.bmp	50pct	20	499	1	N240.bmp	50pct	40	499	1	N240.bmp	50pct	60	499	1	N120.bmp	50pct	80	499
113016	10:34:57	1	1	4.0.9.0	1	6	chabieyuxian	eleven	500	0	0	0	0	0	abnorpic11	1	56	0	1	+	50pct	50pct	0	1	N240.bmp	50pct	20	499	1	N75.bmp	50pct	60	499	1	N240.bmp	50pct	60	499	1	N240.bmp	50pct	80	499
113016	10:34:57	1	1	4.0.9.0	1	7	chabieyuxian	one	500	0	0	0	0	0	norpic4	0	36	0	1	+	50pct	50pct	0	1	N225.bmp	50pct	20	499	1	N240.bmp	50pct	40	499	1	N240.bmp	50pct	60	499	1	N240.bmp	50pct	80	499
113016	10:34:57	1	1	4.0.9.0	1	8	chabieyuxian	thirteen	500	0	0	0	0	0	norpic3	0	23	0	1	+	50pct	50pct	0	1	N240.bmp	50pct	20	499	1	N240.bmp	50pct	40	499	1	N240.bmp	50pct	60	499	1	N45.bmp	50pct	20	499
113016	10:34:57	1	1	4.0.9.0	1	9	chabieyuxian	ten	500	0	0	0	0	0	abnorpic10	1	61	0	1	+	50pct	50pct	0	1	N90.bmp	50pct	40	499	1	N240.bmp	50pct	40	499	1	N240.bmp	50pct	60	499	1	N240.bmp	50pct	80	499
113016	10:34:57	1	1	4.0.9.0	1	10	chabieyuxian	fifteen	500	0	0	0	0	0	abnorpic15	1	39	0	1	+	50pct	50pct	0	1	N240.bmp	50pct	20	499	1	N15.bmp	50pct	60	499	1	N240.bmp	50pct	60	499	1	N240.bmp	50pct	80	499
113016	10:34:57	1	1	4.0.9.0	1	11	chabieyuxian	six	500	0	0	0	0	0	abnorpic6	1	51	0	1	+	50pct	50pct	0	1	N240.bmp	50pct	20	499	1	N150.bmp	50pct	40	499	1	N240.bmp	50pct	60	499	1	N240.bmp	50pct	80	499
113016	10:34:57	1	1	4.0.9.0	1	12	chabieyuxian	four	500	0	0	0	0	0	abnorpic4	1	24	0	1	+	50pct	50pct	0	1	N225.bmp	50pct	20	499	1	N240.bmp	50pct	40	499	1	N240.bmp	50pct	60	499	1	N180.bmp	50pct	80	499
113016	10:34:57	1	1	4.0.9.0	1	13	chabieyuxian	fourteen	500	0	0	0	0	0	abnorpic14	1	42	0	1	+	50pct	50pct	0	1	N30.bmp	50pct	40	499	1	N240.bmp	50pct	40	499	1	N240.bmp	50pct	60	499	1	N240.bmp	50pct	80	499
113016	10:34:57	1	1	4.0.9.0	1	14	chabieyuxian	three	500	0	0	0	0	0	norpic1	0	16	0	1	+	50pct	50pct	0	1	N240.bmp	50pct	20	499	1	N240.bmp	50pct	40	499	1	N195.bmp	50pct	60	499	1	N240.bmp	50pct	80	499
113016	10:34:57	1	1	4.0.9.0	1	15	chabieyuxian	nine	500	0	0	0	0	0	norpic1	1	37	0	1	+	50pct	50pct	0	1	N240.bmp	50pct	20	499	1	N240.bmp	50pct	40	499	1	N240.bmp	50pct	60	499	1	N105.bmp	50pct	20	499
