date	time	group	subject	build	blocknum	trialnum	blockcode	trialcode	pretrialpause	posttrialpause	windowcenter	trialduration	trialtimeout	blocktimeout	response	correct	latency	inwindow
112916	01:35:53	1	1	4.0.9.0	2	1	exerciseblk1	7	500	0	0	0	0	0	034	1	652	0
112916	01:35:53	1	1	4.0.9.0	2	2	exerciseblk1	6	500	0	0	0	0	0	022	1	1764	0
112916	01:35:53	1	1	4.0.9.0	2	3	exerciseblk1	12	500	0	0	0	0	0	032	0	1272	0
112916	01:35:53	1	1	4.0.9.0	2	4	exerciseblk1	3	500	0	0	0	0	0	013	1	1178	0
112916	01:35:53	1	1	4.0.9.0	2	5	exerciseblk1	10	500	0	0	0	0	0	044	1	790	0
112916	01:35:53	1	1	4.0.9.0	2	6	exerciseblk1	8	500	0	0	0	0	0	034	1	1041	0
112916	01:35:53	1	1	4.0.9.0	5	1	exerciseblk2	11	500	0	0	0	0	0	042	1	793	0
112916	01:35:53	1	1	4.0.9.0	5	2	exerciseblk2	5	500	0	0	0	0	0	021	1	2281	0
112916	01:35:53	1	1	4.0.9.0	5	3	exerciseblk2	4	500	0	0	0	0	0	024	1	1058	0
112916	01:35:53	1	1	4.0.9.0	5	4	exerciseblk2	1	500	0	0	0	0	0	024	0	1291	0
112916	01:35:53	1	1	4.0.9.0	5	5	exerciseblk2	2	500	0	0	0	0	0	012	1	817	0
112916	01:35:53	1	1	4.0.9.0	5	6	exerciseblk2	9	500	0	0	0	0	0	044	0	711	0
112916	01:37:31	2	1	4.0.9.0	2	1	exerciseblk1	7	500	0	0	0	0	0	012	0	245	0
112916	01:37:31	2	1	4.0.9.0	2	2	exerciseblk1	6	500	0	0	0	0	0	022	1	1043	0
112916	01:37:31	2	1	4.0.9.0	2	3	exerciseblk1	12	500	0	0	0	0	0	032	0	143	0
112916	01:37:31	2	1	4.0.9.0	2	4	exerciseblk1	3	500	0	0	0	0	0	042	0	194	0
112916	01:37:31	2	1	4.0.9.0	2	5	exerciseblk1	10	500	0	0	0	0	0	012	0	236	0
112916	01:37:31	2	1	4.0.9.0	2	6	exerciseblk1	8	500	0	0	0	0	0	022	0	191	0
112916	01:37:31	2	1	4.0.9.0	5	1	exerciseblk2	11	500	0	0	0	0	0	024	0	229	0
112916	01:37:31	2	1	4.0.9.0	5	2	exerciseblk2	5	500	0	0	0	0	0	032	0	211	0
112916	01:37:31	2	1	4.0.9.0	5	3	exerciseblk2	4	500	0	0	0	0	0	012	0	228	0
112916	01:37:31	2	1	4.0.9.0	5	4	exerciseblk2	1	500	0	0	0	0	0	022	0	270	0
112916	01:37:31	2	1	4.0.9.0	5	5	exerciseblk2	2	500	0	0	0	0	0	012	1	234	0
112916	01:37:31	2	1	4.0.9.0	5	6	exerciseblk2	9	500	0	0	0	0	0	032	1	1331	0
112916	01:38:34	1	2	4.0.9.0	2	1	exerciseblk1	7	500	0	0	0	0	0	012	0	386	0
112916	01:38:34	1	2	4.0.9.0	2	2	exerciseblk1	6	500	0	0	0	0	0	022	1	703	0
112916	01:38:34	1	2	4.0.9.0	2	3	exerciseblk1	12	500	0	0	0	0	0	032	0	836	0
112916	01:38:34	1	2	4.0.9.0	2	4	exerciseblk1	3	500	0	0	0	0	0	042	0	297	0
112916	01:38:34	1	2	4.0.9.0	2	5	exerciseblk1	10	500	0	0	0	0	0	044	1	2643	0
112916	01:38:34	1	2	4.0.9.0	2	6	exerciseblk1	8	500	0	0	0	0	0	034	1	243	0
112916	12:00:12	1	1	4.0.9.0	2	1	exerciseblk1	7	500	0	0	0	0	0	034	1	7112	0
112916	12:00:12	1	1	4.0.9.0	2	2	exerciseblk1	6	500	0	0	0	0	0	022	1	1261	0
112916	12:00:12	1	1	4.0.9.0	2	3	exerciseblk1	12	500	0	0	0	0	0	034	0	5547	0
112916	12:00:12	1	1	4.0.9.0	2	4	exerciseblk1	3	500	0	0	0	0	0	013	1	2002	0
112916	12:00:12	1	1	4.0.9.0	2	5	exerciseblk1	10	500	0	0	0	0	0	044	1	22763	0
112916	12:00:12	1	1	4.0.9.0	2	6	exerciseblk1	8	500	0	0	0	0	0	034	1	2511	0
112916	12:00:12	1	1	4.0.9.0	5	1	exerciseblk2	11	500	0	0	0	0	0	042	1	1306	0
112916	12:00:12	1	1	4.0.9.0	5	2	exerciseblk2	5	500	0	0	0	0	0	021	1	2347	0
112916	12:00:12	1	1	4.0.9.0	5	3	exerciseblk2	4	500	0	0	0	0	0	024	1	1020	0
112916	12:00:12	1	1	4.0.9.0	5	4	exerciseblk2	1	500	0	0	0	0	0	013	1	2559	0
112916	12:00:12	1	1	4.0.9.0	5	5	exerciseblk2	2	500	0	0	0	0	0	012	1	1022	0
112916	12:00:12	1	1	4.0.9.0	5	6	exerciseblk2	9	500	0	0	0	0	0	032	1	1813	0
112916	12:02:27	1	2	4.0.9.0	2	1	exerciseblk2	11	500	0	0	0	0	0	042	1	12639	0
112916	12:02:27	1	2	4.0.9.0	2	2	exerciseblk2	5	500	0	0	0	0	0	021	1	2984	0
112916	12:02:27	1	2	4.0.9.0	2	3	exerciseblk2	4	500	0	0	0	0	0	Ctrl+'Q'	1	13336	0
112916	12:06:48	1	1	4.0.9.0	2	1	exerciseblk1	7	500	0	0	0	0	0	034	1	2298	0
112916	12:06:48	1	1	4.0.9.0	2	2	exerciseblk1	6	500	0	0	0	0	0	022	1	1960	0
112916	12:06:48	1	1	4.0.9.0	2	3	exerciseblk1	12	500	0	0	0	0	0	034	0	7877	0
112916	12:06:48	1	1	4.0.9.0	2	4	exerciseblk1	3	500	0	0	0	0	0	013	1	3851	0
112916	12:06:48	1	1	4.0.9.0	2	5	exerciseblk1	10	500	0	0	0	0	0	044	1	2721	0
112916	12:06:48	1	1	4.0.9.0	2	6	exerciseblk1	8	500	0	0	0	0	0	034	1	4279	0
112916	12:06:48	1	1	4.0.9.0	5	1	exerciseblk2	11	500	0	0	0	0	0	042	1	2175	0
112916	12:06:48	1	1	4.0.9.0	5	2	exerciseblk2	5	500	0	0	0	0	0	021	1	6989	0
112916	12:06:48	1	1	4.0.9.0	5	3	exerciseblk2	4	500	0	0	0	0	0	024	1	1486	0
112916	12:06:48	1	1	4.0.9.0	5	4	exerciseblk2	1	500	0	0	0	0	0	013	1	4583	0
112916	12:06:48	1	1	4.0.9.0	5	5	exerciseblk2	2	500	0	0	0	0	0	012	1	1426	0
112916	12:06:48	1	1	4.0.9.0	5	6	exerciseblk2	9	500	0	0	0	0	0	032	1	1038	0
112916	12:08:16	1	2	4.0.9.0	2	1	exerciseblk2	11	500	0	0	0	0	0	042	1	9936	0
112916	12:08:16	1	2	4.0.9.0	2	2	exerciseblk2	5	500	0	0	0	0	0	Ctrl+'Q'	1	1090	0
